

task	trial	fix1dur	fix2dur	fix3dur	s1dur	s2dur	s3dur	change	target	font	Astim	Vstim	newcolor	ccol1	ccol2	ccol3	ccol4	cside	cpos1	cpos2	cpos3	cpos4	rcol1	rcol2	rcol3	rcol4	rside	rpos1	rpos2	rpos3	rpos4	Resp1	CorAns1	Resp2	CorAns2	Acc1	Acc2	RT1	RT2


task	trial	fix1dur	fix2dur	fix3dur	s1dur	s2dur	s3dur	change	target	font	Astim	Vstim	newcolor	ccol1	ccol2	ccol3	ccol4	cside	cpos1	cpos2	cpos3	cpos4	rcol1	rcol2	rcol3	rcol4	rside	rpos1	rpos2	rpos3	rpos4	Resp1	CorAns1	Resp2	CorAns2	Acc1	Acc2	RT1	RT2


task	trial	fix1dur	fix2dur	fix3dur	s1dur	s2dur	s3dur	change	target	font	Astim	Vstim	newcolor	ccol1	ccol2	ccol3	ccol4	cside	cpos1	cpos2	cpos3	cpos4	rcol1	rcol2	rcol3	rcol4	rside	rpos1	rpos2	rpos3	rpos4	Resp1	CorAns1	Resp2	CorAns2	Acc1	Acc2	RT1	RT2


task	trial	fix1dur	fix2dur	fix3dur	s1dur	s2dur	s3dur	change	target	font	Astim	Vstim	newcolor	ccol1	ccol2	ccol3	ccol4	cside	cpos1	cpos2	cpos3	cpos4	rcol1	rcol2	rcol3	rcol4	rside	rpos1	rpos2	rpos3	rpos4	Resp1	CorAns1	Resp2	CorAns2	Acc1	Acc2	RT1	RT2


task	trial	fix1dur	fix2dur	fix3dur	s1dur	s2dur	s3dur	change	target	font	Astim	Vstim	newcolor	ccol1	ccol2	ccol3	ccol4	cside	cpos1	cpos2	cpos3	cpos4	rcol1	rcol2	rcol3	rcol4	rside	rpos1	rpos2	rpos3	rpos4	Resp1	CorAns1	Resp2	CorAns2	Acc1	Acc2	RT1	RT2


task	trial	fix1dur	fix2dur	fix3dur	s1dur	s2dur	s3dur	change	target	font	Astim	Vstim	newcolor	ccol1	ccol2	ccol3	ccol4	cside	cpos1	cpos2	cpos3	cpos4	rcol1	rcol2	rcol3	rcol4	rside	rpos1	rpos2	rpos3	rpos4	Resp1	CorAns1	Resp2	CorAns2	Acc1	Acc2	RT1	RT2


task	trial	fix1dur	fix2dur	fix3dur	s1dur	s2dur	s3dur	change	target	font	Astim	Vstim	newcolor	ccol1	ccol2	ccol3	ccol4	cside	cpos1	cpos2	cpos3	cpos4	rcol1	rcol2	rcol3	rcol4	rside	rpos1	rpos2	rpos3	rpos4	Resp1	CorAns1	Resp2	CorAns2	Acc1	Acc2	RT1	RT2


task	trial	fix1dur	fix2dur	fix3dur	s1dur	s2dur	s3dur	change	target	font	Astim	Vstim	newcolor	ccol1	ccol2	ccol3	ccol4	cside	cpos1	cpos2	cpos3	cpos4	rcol1	rcol2	rcol3	rcol4	rside	rpos1	rpos2	rpos3	rpos4	Resp1	CorAns1	Resp2	CorAns2	Acc1	Acc2	RT1	RT2


task	trial	fix1dur	fix2dur	fix3dur	s1dur	s2dur	s3dur	change	target	font	Astim	Vstim	newcolor	ccol1	ccol2	ccol3	ccol4	cside	cpos1	cpos2	cpos3	cpos4	rcol1	rcol2	rcol3	rcol4	rside	rpos1	rpos2	rpos3	rpos4	Resp1	CorAns1	Resp2	CorAns2	Acc1	Acc2	RT1	RT2


task	trial	fix1dur	fix2dur	fix3dur	s1dur	s2dur	s3dur	change	target	font	Astim	Vstim	newcolor	ccol1	ccol2	ccol3	ccol4	cside	cpos1	cpos2	cpos3	cpos4	rcol1	rcol2	rcol3	rcol4	rside	rpos1	rpos2	rpos3	rpos4	Resp1	CorAns1	Resp2	CorAns2	Acc1	Acc2	RT1	RT2


task	trial	fix1dur	fix2dur	fix3dur	s1dur	s2dur	s3dur	change	target	font	Astim	Vstim	newcolor	ccol1	ccol2	ccol3	ccol4	cside	cpos1	cpos2	cpos3	cpos4	rcol1	rcol2	rcol3	rcol4	rside	rpos1	rpos2	rpos3	rpos4	Resp1	CorAns1	Resp2	CorAns2	Acc1	Acc2	RT1	RT2


task	trial	fix1dur	fix2dur	fix3dur	s1dur	s2dur	s3dur	change	target	font	Astim	Vstim	newcolor	ccol1	ccol2	ccol3	ccol4	cside	cpos1	cpos2	cpos3	cpos4	rcol1	rcol2	rcol3	rcol4	rside	rpos1	rpos2	rpos3	rpos4	Resp1	CorAns1	Resp2	CorAns2	Acc1	Acc2	RT1	RT2


task	trial	fix1dur	fix2dur	fix3dur	s1dur	s2dur	s3dur	change	target	font	Astim	Vstim	newcolor	ccol1	ccol2	ccol3	ccol4	cside	cpos1	cpos2	cpos3	cpos4	rcol1	rcol2	rcol3	rcol4	rside	rpos1	rpos2	rpos3	rpos4	Resp1	CorAns1	Resp2	CorAns2	Acc1	Acc2	RT1	RT2


task	trial	fix1dur	fix2dur	fix3dur	s1dur	s2dur	s3dur	change	target	font	Astim	Vstim	newcolor	ccol1	ccol2	ccol3	ccol4	cside	cpos1	cpos2	cpos3	cpos4	rcol1	rcol2	rcol3	rcol4	rside	rpos1	rpos2	rpos3	rpos4	Resp1	CorAns1	Resp2	CorAns2	Acc1	Acc2	RT1	RT2


task	trial	fix1dur	fix2dur	fix3dur	s1dur	s2dur	s3dur	change	target	font	Astim	Vstim	newcolor	ccol1	ccol2	ccol3	ccol4	cside	cpos1	cpos2	cpos3	cpos4	rcol1	rcol2	rcol3	rcol4	rside	rpos1	rpos2	rpos3	rpos4	Resp1	CorAns1	Resp2	CorAns2	Acc1	Acc2	RT1	RT2


task	trial	fix1dur	fix2dur	fix3dur	s1dur	s2dur	s3dur	change	target	font	Astim	Vstim	newcolor	ccol1	ccol2	ccol3	ccol4	cside	cpos1	cpos2	cpos3	cpos4	rcol1	rcol2	rcol3	rcol4	rside	rpos1	rpos2	rpos3	rpos4	Resp1	CorAns1	Resp2	CorAns2	Acc1	Acc2	RT1	RT2


task	trial	fix1dur	fix2dur	fix3dur	s1dur	s2dur	s3dur	change	target	font	Astim	Vstim	newcolor	ccol1	ccol2	ccol3	ccol4	cside	cpos1	cpos2	cpos3	cpos4	rcol1	rcol2	rcol3	rcol4	rside	rpos1	rpos2	rpos3	rpos4	Resp1	CorAns1	Resp2	CorAns2	Acc1	Acc2	RT1	RT2


task	trial	fix1dur	fix2dur	fix3dur	s1dur	s2dur	s3dur	change	target	font	Astim	Vstim	newcolor	ccol1	ccol2	ccol3	ccol4	cside	cpos1	cpos2	cpos3	cpos4	rcol1	rcol2	rcol3	rcol4	rside	rpos1	rpos2	rpos3	rpos4	Resp1	CorAns1	Resp2	CorAns2	Acc1	Acc2	RT1	RT2


task	trial	fix1dur	fix2dur	fix3dur	s1dur	s2dur	s3dur	change	target	font	Astim	Vstim	newcolor	ccol1	ccol2	ccol3	ccol4	cside	cpos1	cpos2	cpos3	cpos4	rcol1	rcol2	rcol3	rcol4	rside	rpos1	rpos2	rpos3	rpos4	Resp1	CorAns1	Resp2	CorAns2	Acc1	Acc2	RT1	RT2
1	1	1.160235e-01	3.502302e-01	7.000067e-01	2.000124e-01	1.999605e-01	2.000370e+00	1	2	Calibri	 	 	green	yellow	magenta	white	blue	2	750 391	723 482	750 321	768 440	black	red	cyan	gray	2	565 312	564 463	537 398	588 367	0	0	0	6	1	NaN	NaN	NaN
1	2	1.168600e-01	3.501495e-01	7.001602e-01	1.999449e-01	1.999017e-01	2.000273e+00	1	1	Calibri	 	 	purple	white	green	black	blue	1	551 317	508 389	565 441	577 492	pink	blue	green	red	1	759 453	739 327	699 422	700 367	0	0	0	6	1	NaN	NaN	NaN


task	trial	fix1dur	fix2dur	fix3dur	s1dur	s2dur	s3dur	change	target	font	Astim	Vstim	newcolor	ccol1	ccol2	ccol3	ccol4	cside	cpos1	cpos2	cpos3	cpos4	rcol1	rcol2	rcol3	rcol4	rside	rpos1	rpos2	rpos3	rpos4	Resp1	CorAns1	Resp2	CorAns2	Acc1	Acc2	RT1	RT2
1	3	1.667152e-01	3.499761e-01	7.001002e-01	2.001389e-01	7.001015e-01	2.000299e+00	1	4	Calibri	p	4	white	blue	magenta	pink	purple	2	714 496	718 323	727 439	739 388	gray	purple	green	magenta	2	555 366	559 292	506 393	541 466	0	8	0	6	0	NaN	NaN	NaN
1	4	1.835200e-01	3.498815e-01	7.001988e-01	2.000447e-01	6.501664e-01	2.000237e+00	1	3	Calibri	p	2	red	magenta	gray	pink	black	1	543 417	524 349	566 290	558 509	magenta	gray	cyan	blue	1	714 383	762 435	709 473	720 311	0	8	0	6	0	NaN	NaN	NaN
1	5	1.328269e-01	3.498019e-01	6.999927e-01	2.001587e-01	8.003351e-01	2.000428e+00	0	3	Calibri	k	4	yellow	magenta	black	blue	red	2	720 323	735 378	755 437	703 508	pink	red	black	purple	2	506 389	564 397	574 294	548 453	0	6	0	8	0	NaN	NaN	NaN


task	trial	fix1dur	fix2dur	fix3dur	s1dur	s2dur	s3dur	change	target	font	Astim	Vstim	newcolor	ccol1	ccol2	ccol3	ccol4	cside	cpos1	cpos2	cpos3	cpos4	rcol1	rcol2	rcol3	rcol4	rside	rpos1	rpos2	rpos3	rpos4	Resp1	CorAns1	Resp2	CorAns2	Acc1	Acc2	RT1	RT2
1	1	1.166911e-01	3.501281e-01	7.002069e-01	2.001441e-01	1.998983e-01	2.000242e+00	0	3	Calibri	 	 	orange	pink	white	red	green	2	703 386	759 352	696 499	730 301	gray	magenta	black	yellow	2	534 422	573 309	559 480	512 363	0	0	0	8	1	NaN	NaN	NaN
1	2	1.166940e-01	3.499990e-01	7.002322e-01	2.002063e-01	2.000027e-01	2.000121e+00	0	1	Calibri	 	 	red	white	blue	magenta	green	2	704 346	703 452	758 374	702 294	black	green	white	red	2	561 441	581 318	544 365	578 514	0	0	0	8	1	NaN	NaN	NaN
1	3	1.667911e-01	3.499339e-01	7.001223e-01	2.000130e-01	7.834337e-01	2.000434e+00	1	4	Calibri	k	4	black	pink	blue	magenta	gray	1	569 496	528 454	586 302	573 380	gray	orange	white	black	1	745 472	708 512	696 350	771 362	0	6	0	6	0	NaN	NaN	NaN
1	4	1.834588e-01	3.500944e-01	7.002225e-01	1.999365e-01	6.499863e-01	2.000255e+00	0	1	Calibri	p	2	yellow	orange	cyan	green	black	1	571 332	534 445	560 493	531 391	black	blue	red	gray	1	741 454	714 391	694 320	742 340	0	8	0	8	0	NaN	NaN	NaN
1	5	1.159454e-01	3.502048e-01	7.000491e-01	1.999991e-01	1.999027e-01	2.000503e+00	0	3	Calibri	 	 	gray	magenta	pink	purple	cyan	1	556 323	566 468	539 385	584 417	purple	red	black	green	1	695 368	702 509	755 345	740 399	0	0	0	8	1	NaN	NaN	NaN
1	6	1.661577e-01	3.501710e-01	7.003217e-01	1.999011e-01	7.832853e-01	2.000277e+00	0	3	Calibri	k	2	black	magenta	green	red	gray	1	561 311	563 458	547 368	518 432	gray	black	blue	pink	1	765 422	738 372	710 312	734 495	0	6	0	8	0	NaN	NaN	NaN
1	7	1.667493e-01	3.500481e-01	7.001153e-01	2.000296e-01	2.001983e-01	2.000147e+00	0	2	Calibri	 	 	cyan	red	purple	blue	orange	1	587 402	567 323	529 389	586 477	cyan	gray	yellow	black	1	704 461	740 314	765 455	742 393	0	0	0	8	1	NaN	NaN	NaN
1	8	1.500507e-01	3.500685e-01	7.000782e-01	2.000103e-01	7.835876e-01	2.000257e+00	1	1	Calibri	k	4	orange	white	magenta	blue	purple	1	547 340	579 296	528 433	588 487	green	blue	magenta	white	1	763 382	747 458	704 417	711 514	0	6	0	6	0	NaN	NaN	NaN
1	9	9.999991e-02	3.500085e-01	7.001108e-01	2.000719e-01	2.001629e-01	2.000224e+00	0	2	Calibri	 	 	green	yellow	orange	white	gray	2	749 359	767 433	695 335	729 495	yellow	purple	white	green	2	543 355	581 460	519 452	588 523	0	0	0	8	1	NaN	NaN	NaN
1	10	1.834924e-01	3.500284e-01	6.999486e-01	1.999427e-01	2.001912e-01	2.000301e+00	0	4	Calibri	 	 	red	orange	pink	magenta	yellow	2	761 458	721 362	710 497	732 307	yellow	cyan	black	green	2	550 343	506 404	533 470	580 284	0	0	0	8	1	NaN	NaN	NaN
1	11	1.832961e-01	3.499946e-01	7.001238e-01	2.001781e-01	6.500826e-01	2.000355e+00	0	3	Calibri	p	2	pink	black	purple	orange	gray	2	700 391	737 333	707 464	714 285	red	green	cyan	pink	2	575 320	544 470	543 408	520 346	0	8	0	8	0	NaN	NaN	NaN
1	12	1.327064e-01	3.499433e-01	7.001226e-01	2.002261e-01	1.999723e-01	2.000301e+00	1	4	Calibri	 	 	black	white	gray	red	purple	1	535 419	544 319	583 464	575 371	yellow	purple	blue	white	1	700 349	708 506	734 406	762 454	0	0	0	6	1	NaN	NaN	NaN
1	13	1.992813e-01	3.500586e-01	7.000954e-01	2.000195e-01	6.502388e-01	2.000192e+00	1	3	Calibri	p	4	purple	magenta	white	pink	yellow	2	766 418	705 351	715 407	762 356	orange	gray	pink	cyan	2	522 456	563 365	576 292	578 478	0	8	0	6	0	NaN	NaN	NaN


task	trial	fix1dur	fix2dur	fix3dur	s1dur	s2dur	s3dur	change	target	font	Astim	Vstim	newcolor	ccol1	ccol2	ccol3	ccol4	cside	cpos1	cpos2	cpos3	cpos4	rcol1	rcol2	rcol3	rcol4	rside	rpos1	rpos2	rpos3	rpos4	Resp1	CorAns1	Resp2	CorAns2	Acc1	Acc2	RT1	RT2


task	trial	fix1dur	fix2dur	fix3dur	s1dur	s2dur	s3dur	change	target	font	Astim	Vstim	newcolor	ccol1	ccol2	ccol3	ccol4	cside	cpos1	cpos2	cpos3	cpos4	rcol1	rcol2	rcol3	rcol4	rside	rpos1	rpos2	rpos3	rpos4	Resp1	CorAns1	Resp2	CorAns2	Acc1	Acc2	RT1	RT2
1	1	1.166988e-01	3.499185e-01	7.000897e-01	2.001873e-01	2.000607e-01	2.000313e+00	0	3	Calibri	 	 	orange	pink	white	red	green	2	703 386	759 352	696 499	730 301	gray	magenta	black	yellow	2	534 422	573 309	559 480	512 363	0	0	0	8	1	NaN	NaN	NaN
1	2	1.168748e-01	3.500905e-01	7.001133e-01	1.998438e-01	2.000238e-01	2.000459e+00	0	1	Calibri	 	 	red	white	blue	magenta	green	2	704 346	703 452	758 374	702 294	black	green	white	red	2	561 441	581 318	544 365	578 514	0	0	0	8	1	NaN	NaN	NaN
1	3	1.666632e-01	7.834499e-01	7.000630e-01	2.000978e-01	2.000115e-01	2.000322e+00	1	4	Calibri	k	4	black	pink	blue	magenta	gray	1	569 496	528 454	586 302	573 380	gray	orange	white	black	1	745 472	708 512	696 350	771 362	0	6	0	6	0	NaN	NaN	NaN
1	4	1.500495e-01	6.501113e-01	7.002628e-01	2.000271e-01	2.000056e-01	2.000290e+00	0	1	Calibri	p	2	yellow	orange	cyan	green	black	1	571 332	534 445	560 493	531 391	black	blue	red	gray	1	741 454	714 391	694 320	742 340	0	8	0	8	0	NaN	NaN	NaN


task	trial	fix1dur	fix2dur	fix3dur	s1dur	s2dur	s3dur	change	target	font	Astim	Vstim	newcolor	ccol1	ccol2	ccol3	ccol4	cside	cpos1	cpos2	cpos3	cpos4	rcol1	rcol2	rcol3	rcol4	rside	rpos1	rpos2	rpos3	rpos4	Resp1	CorAns1	Resp2	CorAns2	Acc1	Acc2	RT1	RT2
1	1	1.333631e-01	3.500881e-01	7.001486e-01	2.000249e-01	2.166782e-01	2.000300e+00	1	4	Calibri	 	 	orange	pink	green	red	black	2	718 370	700 491	750 415	703 316	white	blue	yellow	pink	2	522 335	578 408	566 482	527 388	0	0	0	6	1	NaN	NaN	NaN
1	2	1.833465e-01	3.500674e-01	7.001203e-01	2.000179e-01	2.000415e-01	2.000322e+00	0	3	Calibri	 	 	black	blue	gray	cyan	magenta	1	558 484	575 378	563 291	510 436	yellow	red	purple	blue	1	709 343	719 487	708 415	703 288	0	0	0	8	1	NaN	NaN	NaN
1	3	1.667038e-01	3.500900e-01	7.001117e-01	2.000402e-01	2.000358e-01	2.000291e+00	1	1	Calibri	 	 	green	yellow	magenta	purple	pink	2	719 382	699 496	773 378	693 312	magenta	orange	white	pink	2	580 410	562 481	524 364	574 310	0	0	0	6	1	NaN	NaN	NaN
1	4	1.333468e-01	3.500408e-01	7.000999e-01	2.000285e-01	7.834957e-01	2.000304e+00	1	3	Calibri	k	2	purple	cyan	magenta	green	blue	1	558 465	553 393	579 281	572 339	yellow	black	green	blue	1	767 371	768 450	718 474	712 401	0	6	0	6	0	NaN	NaN	NaN
1	5	1.501001e-01	3.501070e-01	7.001179e-01	1.999485e-01	1.999940e-01	2.000356e+00	0	1	Calibri	 	 	orange	purple	magenta	white	green	2	694 339	758 468	706 412	702 485	white	gray	magenta	yellow	2	527 372	518 456	555 300	568 421	0	0	0	8	1	NaN	NaN	NaN
1	6	1.667711e-01	3.500342e-01	7.000585e-01	2.000054e-01	7.835007e-01	2.000383e+00	0	4	Calibri	k	2	black	magenta	green	purple	gray	2	729 409	693 461	734 313	707 359	cyan	magenta	yellow	green	2	558 482	561 300	575 396	505 421	0	6	0	8	0	NaN	NaN	NaN
1	7	1.833539e-01	3.500844e-01	7.001594e-01	2.000126e-01	7.834559e-01	2.000259e+00	1	4	Calibri	k	2	blue	green	orange	purple	pink	1	526 369	533 423	545 480	587 511	blue	yellow	red	green	1	738 351	727 484	718 413	776 407	0	6	0	6	0	NaN	NaN	NaN
1	8	1.167137e-01	3.501094e-01	7.001533e-01	1.999902e-01	7.834254e-01	2.000274e+00	1	4	Calibri	k	4	cyan	red	orange	gray	pink	2	696 498	711 373	751 330	696 299	black	white	pink	blue	2	546 426	531 347	556 498	582 323	0	6	0	6	0	NaN	NaN	NaN


task	trial	fix1dur	fix2dur	fix3dur	s1dur	s2dur	s3dur	change	target	font	Astim	Vstim	newcolor	ccol1	ccol2	ccol3	ccol4	cside	cpos1	cpos2	cpos3	cpos4	rcol1	rcol2	rcol3	rcol4	rside	rpos1	rpos2	rpos3	rpos4	Resp1	CorAns1	Resp2	CorAns2	Acc1	Acc2	RT1	RT2


task	trial	fix1dur	fix2dur	fix3dur	s1dur	s2dur	s3dur	change	target	font	Astim	Vstim	newcolor	ccol1	ccol2	ccol3	ccol4	cside	cpos1	cpos2	cpos3	cpos4	rcol1	rcol2	rcol3	rcol4	rside	rpos1	rpos2	rpos3	rpos4	Resp1	CorAns1	Resp2	CorAns2	Acc1	Acc2	RT1	RT2
1	1	1.002005e-01	3.500618e-01	7.001509e-01	1.998535e-01	2.833505e-01	2.000424e+00	0	2	Calibri	p	2	yellow	orange	blue	magenta	green	2	708 366	703 422	703 488	715 313	gray	cyan	yellow	green	2	517 401	541 352	533 486	573 300	0	8	0	8	0	NaN	NaN	NaN


task	trial	fix1dur	fix2dur	fix3dur	s1dur	s2dur	s3dur	change	target	font	Astim	Vstim	newcolor	ccol1	ccol2	ccol3	ccol4	cside	cpos1	cpos2	cpos3	cpos4	rcol1	rcol2	rcol3	rcol4	rside	rpos1	rpos2	rpos3	rpos4	Resp1	CorAns1	Resp2	CorAns2	Acc1	Acc2	RT1	RT2
1	1	1.499763e-01	3.499945e-01	7.002795e-01	2.002136e-01	2.998756e-01	2.000291e+00	0	2	Calibri	p	2	yellow	orange	blue	magenta	green	2	708 366	703 422	703 488	715 313	gray	cyan	yellow	green	2	517 401	541 352	533 486	573 300	0	8	0	8	0	NaN	NaN	NaN
1	2	1.667227e-01	3.499381e-01	7.002346e-01	2.001441e-01	1.999947e-01	2.000283e+00	1	4	Calibri	 	 	yellow	purple	gray	blue	cyan	1	550 351	587 303	579 514	555 417	orange	cyan	green	yellow	1	744 344	715 447	745 405	698 382	0	0	0	6	1	NaN	NaN	NaN
1	3	1.168044e-01	3.500657e-01	7.002729e-01	2.000648e-01	1.998360e-01	2.000289e+00	0	2	Calibri	 	 	blue	yellow	green	pink	orange	2	734 388	729 497	763 447	718 314	magenta	green	gray	purple	2	582 472	559 391	588 316	515 434	0	0	0	8	1	NaN	NaN	NaN
1	4	1.333940e-01	3.499707e-01	7.003274e-01	2.000912e-01	2.000253e-01	2.000234e+00	0	4	Calibri	k	6	yellow	green	gray	magenta	white	2	697 463	722 332	774 394	720 410	cyan	blue	purple	pink	2	522 362	568 399	567 496	581 306	0	6	0	8	0	NaN	NaN	NaN
1	5	1.168187e-01	3.501822e-01	7.001246e-01	1.998769e-01	1.998756e-01	2.000346e+00	0	3	Calibri	k	2	white	black	orange	green	red	1	583 494	572 342	586 435	514 454	pink	green	red	magenta	1	704 385	693 314	706 445	722 502	0	6	0	8	0	NaN	NaN	NaN
1	6	1.166818e-01	3.499967e-01	7.002851e-01	2.000936e-01	1.999450e-01	2.000235e+00	1	2	Calibri	p	2	pink	yellow	red	magenta	green	1	519 447	582 384	584 308	560 510	black	orange	gray	purple	1	714 446	765 367	718 290	701 350	0	8	0	6	0	NaN	NaN	NaN
1	7	1.332895e-01	3.500404e-01	7.001273e-01	2.000557e-01	2.000089e-01	2.000407e+00	1	2	Calibri	k	2	orange	blue	white	green	gray	1	580 371	537 439	505 384	552 326	white	black	purple	red	1	716 434	704 354	725 486	700 288	0	6	0	6	0	NaN	NaN	NaN
1	8	1.666366e-01	3.498881e-01	7.003105e-01	2.002093e-01	2.000036e-01	2.000220e+00	0	3	Calibri	 	 	cyan	green	orange	yellow	blue	2	694 479	736 382	702 288	757 469	blue	gray	black	white	2	541 321	561 459	512 391	565 403	0	0	0	8	1	NaN	NaN	NaN
1	9	1.161154e-01	3.499511e-01	7.002141e-01	1.999708e-01	2.000145e-01	2.000307e+00	0	4	Calibri	 	 	blue	pink	orange	white	cyan	1	543 423	523 356	566 510	588 281	cyan	black	yellow	red	1	725 399	693 274	700 508	765 453	0	0	0	8	1	NaN	NaN	NaN
1	10	1.333280e-01	3.501230e-01	7.002090e-01	2.000235e-01	1.999325e-01	2.000250e+00	0	4	Calibri	 	 	cyan	red	gray	white	black	2	725 306	724 459	769 420	760 350	blue	orange	pink	cyan	2	576 497	551 389	541 310	537 449	0	0	0	8	1	NaN	NaN	NaN
1	11	1.502089e-01	3.499384e-01	7.003271e-01	1.999924e-01	2.000133e-01	2.000134e+00	0	2	Calibri	 	 	pink	yellow	blue	purple	cyan	1	578 474	588 287	537 427	551 345	yellow	black	gray	orange	1	701 490	751 391	713 333	761 445	0	0	0	8	1	NaN	NaN	NaN
1	12	1.834428e-01	3.499610e-01	7.003449e-01	1.999708e-01	2.000042e-01	2.000126e+00	0	4	Calibri	 	 	white	yellow	gray	black	cyan	2	701 374	713 503	743 328	697 278	pink	red	white	orange	2	561 437	527 355	548 500	562 293	0	0	0	8	1	NaN	NaN	NaN
1	13	1.668335e-01	3.499974e-01	7.001280e-01	1.998902e-01	2.000301e-01	2.000315e+00	1	1	Calibri	p	6	gray	red	white	green	purple	1	546 370	573 482	563 316	522 441	magenta	cyan	gray	red	1	750 343	751 418	747 472	693 359	0	8	0	6	0	NaN	NaN	NaN
1	14	2.000581e-01	3.500337e-01	7.001507e-01	2.000047e-01	2.000137e-01	2.000374e+00	0	4	Calibri	 	 	gray	black	purple	orange	magenta	2	700 314	756 326	749 448	718 395	red	magenta	yellow	cyan	2	585 477	557 356	562 424	510 405	0	0	0	8	1	NaN	NaN	NaN
1	15	1.833163e-01	3.500609e-01	7.002166e-01	2.001187e-01	1.999222e-01	2.000318e+00	1	2	Calibri	 	 	red	white	purple	cyan	pink	1	571 286	539 480	536 327	518 382	magenta	pink	yellow	cyan	1	709 339	700 397	710 459	764 433	0	0	0	6	1	NaN	NaN	NaN
1	16	1.499968e-01	3.500539e-01	7.001427e-01	2.000324e-01	2.000354e-01	2.000381e+00	0	4	Calibri	k	6	black	cyan	purple	pink	green	2	730 497	756 385	701 416	728 295	yellow	gray	pink	green	2	550 414	552 339	507 382	579 516	0	6	0	8	0	NaN	NaN	NaN
1	17	1.666205e-01	3.500285e-01	7.002130e-01	2.001029e-01	1.999807e-01	2.000240e+00	1	4	Calibri	 	 	yellow	blue	black	red	purple	2	704 473	739 380	766 426	734 324	pink	blue	black	magenta	2	544 388	558 463	587 344	564 287	0	0	0	6	1	NaN	NaN	NaN
1	18	1.667082e-01	3.500804e-01	7.001962e-01	2.001077e-01	1.999073e-01	2.000300e+00	0	1	Calibri	k	6	pink	green	white	orange	magenta	1	552 451	565 503	565 336	505 398	blue	yellow	white	purple	1	719 454	722 508	696 325	738 391	0	6	0	8	0	NaN	NaN	NaN
1	19	1.833333e-01	3.500128e-01	7.000872e-01	2.001059e-01	2.000121e-01	2.000442e+00	1	4	Calibri	k	6	gray	cyan	white	purple	pink	1	558 506	544 429	545 357	577 283	magenta	white	cyan	green	1	725 375	758 426	706 499	753 322	0	6	0	6	0	NaN	NaN	NaN
1	20	1.666764e-01	3.500191e-01	7.001167e-01	2.000848e-01	2.000192e-01	2.000444e+00	0	2	Calibri	p	2	blue	magenta	gray	black	yellow	1	507 381	530 324	562 446	577 364	green	pink	black	blue	1	693 484	730 414	746 325	777 392	0	8	0	8	0	NaN	NaN	NaN


task	trial	fix1dur	fix2dur	fix3dur	s1dur	s2dur	s3dur	change	target	font	Astim	Vstim	newcolor	ccol1	ccol2	ccol3	ccol4	cside	cpos1	cpos2	cpos3	cpos4	rcol1	rcol2	rcol3	rcol4	rside	rpos1	rpos2	rpos3	rpos4	Resp1	CorAns1	Resp2	CorAns2	Acc1	Acc2	RT1	RT2


task	trial	fix1dur	fix2dur	fix3dur	s1dur	s2dur	s3dur	change	target	font	Astim	Vstim	newcolor	ccol1	ccol2	ccol3	ccol4	cside	cpos1	cpos2	cpos3	cpos4	rcol1	rcol2	rcol3	rcol4	rside	rpos1	rpos2	rpos3	rpos4	Resp1	CorAns1	Resp2	CorAns2	Acc1	Acc2	RT1	RT2


task	trial	fix1dur	fix2dur	fix3dur	s1dur	s2dur	s3dur	change	target	font	Astim	Vstim	newcolor	ccol1	ccol2	ccol3	ccol4	cside	cpos1	cpos2	cpos3	cpos4	rcol1	rcol2	rcol3	rcol4	rside	rpos1	rpos2	rpos3	rpos4	Resp1	CorAns1	Resp2	CorAns2	Acc1	Acc2	RT1	RT2


task	trial	fix1dur	fix2dur	fix3dur	s1dur	s2dur	s3dur	change	target	font	Astim	Vstim	newcolor	ccol1	ccol2	ccol3	ccol4	cside	cpos1	cpos2	cpos3	cpos4	rcol1	rcol2	rcol3	rcol4	rside	rpos1	rpos2	rpos3	rpos4	Resp1	CorAns1	Resp2	CorAns2	Acc1	Acc2	RT1	RT2


task	trial	fix1dur	fix2dur	fix3dur	s1dur	s2dur	s3dur	change	target	font	Astim	Vstim	newcolor	ccol1	ccol2	ccol3	ccol4	cside	cpos1	cpos2	cpos3	cpos4	rcol1	rcol2	rcol3	rcol4	rside	rpos1	rpos2	rpos3	rpos4	Resp1	CorAns1	Resp2	CorAns2	Acc1	Acc2	RT1	RT2


task	trial	fix1dur	fix2dur	fix3dur	s1dur	s2dur	s3dur	change	target	font	Astim	Vstim	newcolor	ccol1	ccol2	ccol3	ccol4	cside	cpos1	cpos2	cpos3	cpos4	rcol1	rcol2	rcol3	rcol4	rside	rpos1	rpos2	rpos3	rpos4	Resp1	CorAns1	Resp2	CorAns2	Acc1	Acc2	RT1	RT2
1	1	2.000419e-01	3.500904e-01	7.002813e-01	2.001453e-01	2.831707e-01	2.000181e+00	1	3	Calibri	p	2	orange	red	purple	magenta	white	2	698 441	719 334	730 504	754 445	cyan	black	white	red	2	586 412	585 471	536 398	527 459	0	8	0	6	0	NaN	NaN	NaN
1	2	1.668123e-01	3.499189e-01	7.002868e-01	2.000763e-01	1.999988e-01	2.000211e+00	0	3	Calibri	 	 	cyan	red	gray	white	yellow	1	512 447	568 495	531 350	581 434	pink	white	magenta	black	1	757 463	717 383	711 313	700 471	0	0	0	8	1	NaN	NaN	NaN
1	3	1.832250e-01	3.500449e-01	7.002332e-01	2.000408e-01	2.000070e-01	2.000353e+00	0	1	Calibri	 	 	blue	green	pink	yellow	red	2	753 471	693 364	743 396	705 504	magenta	white	green	blue	2	514 406	585 400	547 329	523 460	0	0	0	8	1	NaN	NaN	NaN
1	4	1.167008e-01	3.501577e-01	7.001573e-01	2.000575e-01	1.998797e-01	2.000288e+00	1	3	Calibri	 	 	blue	cyan	black	green	gray	1	548 384	572 502	586 305	524 463	gray	white	black	blue	1	771 362	714 340	771 441	701 497	0	0	0	6	1	NaN	NaN	NaN
1	5	2.000256e-01	3.499653e-01	7.002575e-01	2.001876e-01	1.999529e-01	2.000282e+00	0	4	Calibri	p	6	gray	pink	black	white	red	1	577 504	538 415	568 351	542 304	gray	green	yellow	blue	1	720 295	700 371	695 448	758 379	0	8	0	8	0	NaN	NaN	NaN
1	6	2.000569e-01	3.502319e-01	7.002319e-01	1.999126e-01	1.998369e-01	2.000245e+00	0	3	Calibri	p	6	black	orange	yellow	cyan	magenta	2	733 337	718 427	743 479	764 402	cyan	white	magenta	green	2	523 387	574 457	531 329	587 338	0	8	0	8	0	NaN	NaN	NaN
1	7	1.333542e-01	3.499307e-01	7.001977e-01	2.000794e-01	1.999950e-01	2.000373e+00	0	2	Calibri	k	2	gray	blue	black	magenta	purple	1	504 412	566 353	576 453	587 298	orange	pink	yellow	white	1	764 429	771 368	706 418	719 288	0	6	0	8	0	NaN	NaN	NaN
1	8	1.833262e-01	3.501596e-01	7.001253e-01	2.000020e-01	1.998752e-01	2.000428e+00	0	3	Calibri	p	2	orange	gray	purple	magenta	yellow	1	581 430	547 378	584 324	549 501	magenta	purple	yellow	blue	1	694 489	755 465	730 375	700 325	0	8	0	8	0	NaN	NaN	NaN
1	9	2.001509e-01	3.500494e-01	7.002020e-01	1.999387e-01	2.000187e-01	2.000307e+00	1	2	Calibri	 	 	orange	red	cyan	green	purple	2	712 332	741 421	703 496	754 368	red	black	magenta	blue	2	567 503	513 420	566 350	509 360	0	0	0	6	1	NaN	NaN	NaN
1	10	1.499775e-01	3.500128e-01	7.002153e-01	2.000827e-01	1.999958e-01	2.000301e+00	1	4	Calibri	p	2	red	gray	blue	white	yellow	2	723 376	751 451	717 320	702 498	magenta	white	blue	pink	2	512 392	536 346	522 466	574 437	0	8	0	6	0	NaN	NaN	NaN
1	11	1.333672e-01	3.501213e-01	7.001726e-01	2.001780e-01	1.998164e-01	2.000350e+00	1	1	Calibri	 	 	red	yellow	pink	cyan	purple	2	739 321	716 390	715 451	700 504	purple	magenta	gray	black	2	582 397	558 296	522 397	560 507	0	0	0	6	1	NaN	NaN	NaN
1	12	1.166796e-01	3.500378e-01	7.001563e-01	2.001118e-01	1.998952e-01	2.000302e+00	1	4	Calibri	p	6	gray	purple	yellow	white	cyan	2	774 376	739 438	709 318	709 495	black	magenta	blue	orange	2	579 400	582 521	582 283	541 341	0	8	0	6	0	NaN	NaN	NaN
1	13	2.000333e-01	3.500848e-01	7.002106e-01	1.999980e-01	1.999847e-01	2.000277e+00	0	2	Calibri	k	6	black	purple	pink	cyan	gray	2	725 348	733 495	768 419	707 283	white	red	gray	pink	2	583 409	546 365	576 488	507 422	0	6	0	8	0	NaN	NaN	NaN


task	trial	fix1dur	fix2dur	fix3dur	s1dur	s2dur	s3dur	change	target	font	Astim	Vstim	newcolor	ccol1	ccol2	ccol3	ccol4	cside	cpos1	cpos2	cpos3	cpos4	rcol1	rcol2	rcol3	rcol4	rside	rpos1	rpos2	rpos3	rpos4	Resp1	CorAns1	Resp2	CorAns2	Acc1	Acc2	RT1	RT2


task	trial	fix1dur	fix2dur	fix3dur	s1dur	s2dur	s3dur	change	target	font	Astim	Vstim	newcolor	ccol1	ccol2	ccol3	ccol4	cside	cpos1	cpos2	cpos3	cpos4	rcol1	rcol2	rcol3	rcol4	rside	rpos1	rpos2	rpos3	rpos4	Resp1	CorAns1	Resp2	CorAns2	Acc1	Acc2	RT1	RT2
5	1	1.666218e-01	3.501767e-01	7.002066e-01	2.000595e-01	2.998415e-01	2.000330e+00	1	3	Calibri	p	6	red	black	green	orange	pink	1	538 467	524 411	582 374	525 329	gray	pink	blue	black	1	761 389	727 476	707 375	740 319	0	8	0	6	0	NaN	NaN	NaN
5	2	1.168535e-01	3.501212e-01	7.001952e-01	1.999596e-01	1.998556e-01	2.000272e+00	0	2	Calibri	 	 	cyan	red	blue	purple	green	2	769 399	722 332	736 463	695 522	blue	pink	red	green	2	567 496	515 439	533 332	581 396	0	0	0	8	1	NaN	NaN	NaN


task	trial	fix1dur	fix2dur	fix3dur	s1dur	s2dur	s3dur	change	target	font	Astim	Vstim	newcolor	ccol1	ccol2	ccol3	ccol4	cside	cpos1	cpos2	cpos3	cpos4	rcol1	rcol2	rcol3	rcol4	rside	rpos1	rpos2	rpos3	rpos4	Resp1	CorAns1	Resp2	CorAns2	Acc1	Acc2	RT1	RT2
5	1	1.333227e-01	3.500397e-01	7.002396e-01	2.000772e-01	3.000094e-01	2.000219e+00	1	3	Calibri	p	6	red	black	green	orange	pink	1	538 467	524 411	582 374	525 329	gray	pink	blue	black	1	761 389	727 476	707 375	740 319	0	8	0	6	0	NaN	NaN	NaN
5	2	1.501618e-01	3.500998e-01	7.001216e-01	2.000041e-01	1.998919e-01	2.000436e+00	0	2	Calibri	 	 	cyan	red	blue	purple	green	2	769 399	722 332	736 463	695 522	blue	pink	red	green	2	567 496	515 439	533 332	581 396	0	0	0	8	1	NaN	NaN	NaN
5	3	1.668217e-01	3.500669e-01	7.002530e-01	1.999387e-01	1.999764e-01	2.000218e+00	1	3	Calibri	p	2	green	gray	blue	black	purple	1	534 319	566 501	584 425	525 382	magenta	yellow	pink	purple	1	734 401	740 472	762 338	705 303	0	6	0	6	0	NaN	NaN	NaN
5	4	1.661267e-01	3.500217e-01	7.002455e-01	1.999930e-01	1.999113e-01	2.000276e+00	1	1	Calibri	k	6	yellow	pink	blue	gray	orange	1	581 465	587 327	509 415	528 463	pink	yellow	green	orange	1	767 397	720 330	711 398	720 452	0	8	0	6	0	NaN	NaN	NaN
5	5	1.669012e-01	3.500558e-01	7.002696e-01	1.999674e-01	1.998925e-01	2.000222e+00	1	3	Calibri	 	 	pink	blue	black	magenta	red	1	573 448	585 298	553 381	524 470	white	blue	yellow	green	1	745 363	711 420	693 482	766 454	0	0	0	6	1	NaN	NaN	NaN
5	6	1.834527e-01	3.500930e-01	7.001927e-01	1.999941e-01	1.998936e-01	2.000235e+00	0	2	Calibri	k	2	pink	red	purple	green	yellow	2	704 373	771 388	722 428	697 319	orange	blue	purple	red	2	551 307	575 360	516 398	581 477	0	6	0	8	0	NaN	NaN	NaN
5	7	1.334653e-01	3.502460e-01	7.001916e-01	1.998790e-01	1.998743e-01	2.000228e+00	1	2	Calibri	k	2	pink	gray	white	yellow	red	1	541 365	553 470	579 400	573 321	gray	black	orange	white	1	700 455	728 384	724 502	712 315	0	6	0	6	0	NaN	NaN	NaN
5	8	1.167325e-01	3.499757e-01	7.001447e-01	2.001056e-01	1.999296e-01	2.000362e+00	1	2	Calibri	p	2	blue	magenta	pink	black	yellow	2	761 361	694 326	773 429	719 484	blue	green	black	pink	2	512 411	574 498	577 423	550 320	0	6	0	6	0	NaN	NaN	NaN
5	9	1.499290e-01	3.500600e-01	7.002483e-01	2.001129e-01	1.999497e-01	2.000193e+00	0	2	Calibri	k	2	magenta	pink	blue	black	yellow	2	743 388	705 500	699 430	722 301	pink	purple	magenta	gray	2	565 359	581 281	549 475	584 429	0	6	0	8	0	NaN	NaN	NaN
5	10	1.667854e-01	3.500757e-01	7.002223e-01	2.000910e-01	1.998654e-01	2.000323e+00	1	2	Calibri	k	6	yellow	purple	orange	magenta	red	1	555 405	517 346	503 403	564 493	black	orange	pink	magenta	1	724 344	741 408	751 477	695 440	0	8	0	6	0	NaN	NaN	NaN
5	11	1.002212e-01	3.500730e-01	7.001226e-01	1.998352e-01	2.000019e-01	2.000351e+00	0	1	Calibri	k	6	gray	black	cyan	white	magenta	2	759 346	696 519	724 396	757 465	green	gray	blue	cyan	2	546 327	524 380	582 462	581 523	0	8	0	8	0	NaN	NaN	NaN
5	12	1.833700e-01	3.501799e-01	7.001771e-01	2.000186e-01	1.999115e-01	2.000287e+00	1	3	Calibri	 	 	purple	pink	orange	cyan	gray	2	696 473	770 372	755 443	715 335	red	pink	black	magenta	2	525 358	585 328	547 472	587 411	0	0	0	6	1	NaN	NaN	NaN
5	13	1.833523e-01	3.502025e-01	7.001193e-01	2.000402e-01	1.998445e-01	2.000354e+00	1	1	Calibri	 	 	magenta	purple	gray	white	green	2	733 323	747 468	710 515	715 422	orange	blue	white	gray	2	553 371	551 314	545 448	570 497	0	0	0	6	1	NaN	NaN	NaN
5	14	1.666449e-01	3.499859e-01	7.001123e-01	2.002296e-01	1.998861e-01	2.000348e+00	1	2	Calibri	 	 	pink	blue	black	cyan	magenta	1	588 379	571 481	569 295	521 464	white	green	magenta	cyan	1	752 379	715 431	772 431	704 486	0	0	0	6	1	NaN	NaN	NaN
5	15	1.500480e-01	3.499869e-01	7.001604e-01	2.000935e-01	2.000305e-01	2.000292e+00	1	4	Calibri	k	6	magenta	green	black	gray	pink	2	708 316	693 513	729 431	735 374	white	green	blue	gray	2	538 316	541 450	513 373	585 376	0	8	0	6	0	NaN	NaN	NaN
5	16	1.335151e-01	3.500272e-01	7.001798e-01	1.998785e-01	2.000326e-01	2.000369e+00	0	1	Calibri	p	2	pink	gray	blue	green	black	1	515 396	578 424	526 340	577 522	pink	black	magenta	blue	1	722 364	738 459	715 512	773 393	0	6	0	8	0	NaN	NaN	NaN
5	17	2.000410e-01	3.499785e-01	7.002315e-01	2.000598e-01	2.000182e-01	2.000230e+00	0	2	Calibri	 	 	gray	blue	red	pink	cyan	1	584 520	559 327	535 443	580 393	yellow	magenta	cyan	gray	1	726 472	702 420	739 377	751 320	0	0	0	8	1	NaN	NaN	NaN
5	18	1.166244e-01	3.501376e-01	7.001204e-01	2.000177e-01	1.999359e-01	2.000435e+00	0	1	Calibri	p	2	red	cyan	black	white	green	1	586 454	513 351	540 490	567 315	white	green	yellow	blue	1	728 329	723 409	749 477	707 516	0	6	0	8	0	NaN	NaN	NaN
5	19	2.000549e-01	3.500506e-01	7.001197e-01	1.999986e-01	1.999568e-01	2.000357e+00	0	4	Calibri	p	2	purple	black	cyan	orange	pink	2	699 368	757 386	728 304	720 504	white	pink	purple	orange	2	527 446	576 466	565 410	520 382	0	6	0	8	0	NaN	NaN	NaN
5	20	1.999355e-01	3.500482e-01	7.002174e-01	2.000838e-01	1.999872e-01	2.000331e+00	0	2	Calibri	k	6	blue	orange	red	green	yellow	2	723 447	750 318	706 290	702 394	cyan	blue	black	white	2	578 475	570 328	512 411	577 414	0	8	0	8	0	NaN	NaN	NaN


task	trial	fix1dur	fix2dur	fix3dur	s1dur	s2dur	s3dur	change	target	font	Astim	Vstim	newcolor	ccol1	ccol2	ccol3	ccol4	cside	cpos1	cpos2	cpos3	cpos4	rcol1	rcol2	rcol3	rcol4	rside	rpos1	rpos2	rpos3	rpos4	Resp1	CorAns1	Resp2	CorAns2	Acc1	Acc2	RT1	RT2
1	1	1.001976e-01	3.500547e-01	5.001284e-01	2.000314e-01	3.998869e-01	2.000388e+00	0	4	Calibri	 	 	orange	cyan	white	magenta	purple	1	566 353	555 489	509 395	517 446	red	yellow	black	magenta	1	729 354	729 424	714 514	694 304	0	0	0	8	1	NaN	NaN	NaN
1	2	1.500950e-01	3.500926e-01	5.001794e-01	2.000883e-01	3.999181e-01	2.000211e+00	0	4	Calibri	o	9	purple	gray	yellow	cyan	pink	1	520 372	576 445	560 506	549 313	yellow	gray	red	magenta	1	726 470	726 323	749 410	697 280	0	8	0	8	0	NaN	NaN	NaN
1	3	2.001119e-01	3.499766e-01	5.002074e-01	2.000485e-01	4.000205e-01	2.000222e+00	0	1	Calibri	 	 	orange	black	red	purple	gray	1	582 342	544 420	578 479	528 364	white	orange	blue	purple	1	739 393	702 474	709 314	760 343	0	0	0	8	1	NaN	NaN	NaN
1	4	1.500367e-01	3.501341e-01	5.002024e-01	2.000347e-01	3.998539e-01	2.000285e+00	0	1	Calibri	k	9	yellow	orange	magenta	black	purple	1	531 394	577 514	577 345	577 451	magenta	black	yellow	purple	1	737 459	699 509	721 366	693 412	0	6	0	8	0	NaN	NaN	NaN
1	5	1.500747e-01	3.499419e-01	5.001031e-01	2.000188e-01	4.000206e-01	2.000479e+00	0	1	Calibri	 	 	black	orange	gray	white	yellow	1	567 335	519 357	536 422	579 478	pink	yellow	red	magenta	1	707 502	705 322	753 341	731 445	0	0	0	8	1	NaN	NaN	NaN
1	6	1.000186e-01	3.500967e-01	5.001047e-01	2.000083e-01	3.999073e-01	2.000340e+00	1	2	Calibri	o	2	blue	white	purple	yellow	green	1	571 394	565 314	519 410	586 445	black	gray	purple	cyan	1	708 476	693 393	713 296	753 354	0	8	0	6	0	NaN	NaN	NaN
1	7	1.333826e-01	3.501334e-01	5.001431e-01	1.999271e-01	3.999015e-01	2.000265e+00	0	4	Calibri	o	2	black	white	red	purple	cyan	2	736 484	721 305	711 435	767 353	yellow	gray	white	blue	2	571 357	541 430	574 473	572 296	0	8	0	8	0	NaN	NaN	NaN
1	8	1.332928e-01	3.501571e-01	5.002332e-01	2.000176e-01	3.999620e-01	2.000228e+00	1	4	Calibri	 	 	black	cyan	green	gray	red	2	717 345	731 396	705 517	725 456	gray	green	yellow	orange	2	547 334	524 421	577 492	574 284	0	0	0	6	1	NaN	NaN	NaN
1	9	1.667882e-01	3.501424e-01	5.000999e-01	1.999665e-01	3.999470e-01	2.000311e+00	1	1	Calibri	 	 	gray	orange	green	white	magenta	1	543 407	577 329	534 476	570 518	orange	magenta	black	green	1	696 480	756 354	712 327	761 422	0	0	0	6	1	NaN	NaN	NaN
1	10	1.833836e-01	3.501562e-01	5.000947e-01	1.999209e-01	3.999240e-01	2.000323e+00	1	3	Calibri	 	 	blue	red	magenta	black	white	1	558 368	587 307	575 429	538 465	orange	blue	gray	black	1	712 469	739 425	737 343	694 278	0	0	0	6	1	NaN	NaN	NaN
1	11	1.167538e-01	3.499808e-01	5.000944e-01	2.000243e-01	4.000370e-01	2.000379e+00	0	2	Calibri	 	 	purple	yellow	black	blue	white	2	766 417	711 357	743 465	732 303	green	pink	red	gray	2	545 444	524 386	586 276	569 337	0	0	0	8	1	NaN	NaN	NaN
1	12	1.166737e-01	3.500019e-01	5.001308e-01	2.001205e-01	3.999993e-01	2.000336e+00	1	1	Calibri	 	 	red	cyan	black	white	blue	1	580 380	510 391	588 284	562 452	yellow	cyan	pink	green	1	744 443	698 394	757 331	696 462	0	0	0	6	1	NaN	NaN	NaN
1	13	1.501353e-01	3.500773e-01	5.000614e-01	1.998725e-01	4.000462e-01	2.000481e+00	0	4	Calibri	o	2	magenta	gray	cyan	yellow	white	1	587 280	587 386	543 479	528 330	green	gray	pink	blue	1	749 344	715 424	707 302	715 505	0	8	0	8	0	NaN	NaN	NaN
1	14	1.667276e-01	3.500537e-01	5.000788e-01	1.999647e-01	4.000489e-01	2.000406e+00	0	1	Calibri	 	 	yellow	orange	green	black	white	1	585 396	520 392	582 492	561 444	yellow	black	magenta	blue	1	710 316	757 348	757 466	726 417	0	0	0	8	1	NaN	NaN	NaN
1	15	1.666685e-01	3.499695e-01	5.001751e-01	2.000633e-01	4.000672e-01	2.000348e+00	1	2	Calibri	 	 	magenta	red	green	purple	pink	2	754 388	695 274	698 330	700 419	white	red	yellow	orange	2	559 436	521 336	579 368	576 289	0	0	0	6	1	NaN	NaN	NaN


task	trial	fix1dur	fix2dur	fix3dur	s1dur	s2dur	s3dur	change	target	font	Astim	Vstim	newcolor	ccol1	ccol2	ccol3	ccol4	cside	cpos1	cpos2	cpos3	cpos4	rcol1	rcol2	rcol3	rcol4	rside	rpos1	rpos2	rpos3	rpos4	Resp1	CorAns1	Resp2	CorAns2	Acc1	Acc2	RT1	RT2
5	1	1.335690e-01	3.500783e-01	5.002723e-01	1.999984e-01	3.998654e-01	2.000215e+00	1	3	Calibri	 	 	gray	cyan	yellow	white	magenta	1	536 430	582 406	570 355	571 496	gray	black	yellow	orange	1	729 437	711 359	770 355	699 287	0	0	0	6	1	NaN	NaN	NaN
5	2	1.834648e-01	3.498713e-01	5.002704e-01	2.001111e-01	4.000598e-01	2.000247e+00	0	3	Calibri	o	9	white	gray	black	orange	blue	1	552 478	537 400	541 315	582 433	orange	green	black	pink	1	708 443	726 340	693 513	749 396	0	8	0	8	0	NaN	NaN	NaN


task	trial	fix1dur	fix2dur	fix3dur	s1dur	s2dur	s3dur	change	target	font	Astim	Vstim	newcolor	ccol1	ccol2	ccol3	ccol4	cside	cpos1	cpos2	cpos3	cpos4	rcol1	rcol2	rcol3	rcol4	rside	rpos1	rpos2	rpos3	rpos4	Resp1	CorAns1	Resp2	CorAns2	Acc1	Acc2	RT1	RT2
5	1	1.166317e-01	3.499083e-01	5.002715e-01	2.001486e-01	4.000156e-01	2.000237e+00	1	3	Calibri	 	 	gray	cyan	yellow	white	magenta	1	536 430	582 406	570 355	571 496	gray	black	yellow	orange	1	729 437	711 359	770 355	699 287	0	0	0	6	1	NaN	NaN	NaN
5	2	1.501951e-01	3.498831e-01	5.001091e-01	2.000381e-01	4.000381e-01	2.000429e+00	0	3	Calibri	o	9	white	gray	black	orange	blue	1	552 478	537 400	541 315	582 433	orange	green	black	pink	1	708 443	726 340	693 513	749 396	0	8	0	8	0	NaN	NaN	NaN


task	trial	fix1dur	fix2dur	fix3dur	s1dur	s2dur	s3dur	change	target	font	Astim	Vstim	newcolor	ccol1	ccol2	ccol3	ccol4	cside	cpos1	cpos2	cpos3	cpos4	rcol1	rcol2	rcol3	rcol4	rside	rpos1	rpos2	rpos3	rpos4	Resp1	CorAns1	Resp2	CorAns2	Acc1	Acc2	RT1	RT2
5	1	1.166879e-01	3.500935e-01	5.000953e-01	2.000155e-01	4.000283e-01	2.000361e+00	1	3	Calibri	 	 	gray	cyan	yellow	white	magenta	1	536 430	582 406	570 355	571 496	gray	black	yellow	orange	1	729 437	711 359	770 355	699 287	0	0	0	6	1	NaN	NaN	NaN
5	2	1.666961e-01	3.500259e-01	5.000829e-01	2.000579e-01	4.000532e-01	2.000340e+00	0	3	Calibri	o	9	white	gray	black	orange	blue	1	552 478	537 400	541 315	582 433	orange	green	black	pink	1	708 443	726 340	693 513	749 396	0	8	0	8	0	NaN	NaN	NaN
5	3	1.166810e-01	3.500587e-01	5.001333e-01	2.000380e-01	4.000216e-01	2.000311e+00	1	2	Calibri	 	 	blue	pink	magenta	cyan	black	2	776 405	695 391	726 455	733 308	green	orange	purple	gray	2	576 434	518 411	562 355	572 293	0	0	0	6	1	NaN	NaN	NaN
5	4	1.333680e-01	3.500618e-01	5.000838e-01	2.000257e-01	4.000635e-01	2.000335e+00	1	3	Calibri	 	 	green	orange	purple	blue	gray	1	575 365	542 446	513 372	588 492	magenta	orange	gray	purple	1	704 368	710 462	707 297	744 420	0	0	0	6	1	NaN	NaN	NaN
5	5	1.166996e-01	3.500602e-01	5.000587e-01	2.000251e-01	4.000733e-01	2.000337e+00	0	1	Calibri	k	2	cyan	white	black	orange	gray	2	764 388	705 411	719 462	697 344	gray	green	black	purple	2	524 378	560 308	586 503	582 358	0	6	0	8	0	NaN	NaN	NaN
5	6	1.833682e-01	3.500627e-01	5.000719e-01	2.000319e-01	4.000824e-01	2.000319e+00	0	3	Calibri	o	9	purple	cyan	green	orange	red	2	757 330	753 461	695 446	775 395	red	cyan	purple	gray	2	567 490	580 430	552 297	506 397	0	8	0	8	0	NaN	NaN	NaN
5	7	2.000376e-01	3.500777e-01	5.000927e-01	2.000082e-01	4.000433e-01	2.000343e+00	0	1	Calibri	 	 	gray	red	orange	purple	black	1	584 386	576 472	548 308	515 375	green	cyan	white	yellow	1	701 340	705 493	752 406	765 349	0	0	0	8	1	NaN	NaN	NaN
5	8	1.500370e-01	3.500281e-01	5.000862e-01	2.000190e-01	4.000871e-01	2.000329e+00	0	1	Calibri	k	2	yellow	purple	cyan	orange	white	1	581 337	513 365	536 448	571 515	green	black	white	red	1	704 500	752 363	697 335	710 406	0	6	0	8	0	NaN	NaN	NaN
5	9	1.160831e-01	3.500591e-01	5.000977e-01	2.000354e-01	4.000740e-01	2.000302e+00	1	3	Calibri	k	9	magenta	orange	white	cyan	pink	1	514 356	567 377	570 299	579 476	green	orange	pink	blue	1	758 351	695 501	744 469	713 286	0	8	0	6	0	NaN	NaN	NaN
5	10	1.667082e-01	3.500377e-01	5.000786e-01	2.000246e-01	4.000721e-01	2.000327e+00	1	3	Calibri	 	 	cyan	gray	red	yellow	purple	2	723 320	742 462	709 408	759 367	white	blue	magenta	pink	2	558 351	559 293	588 475	574 406	0	0	0	6	1	NaN	NaN	NaN
5	11	1.333896e-01	3.500601e-01	5.000685e-01	2.000010e-01	4.000740e-01	2.000323e+00	0	4	Calibri	k	9	magenta	gray	purple	red	orange	1	563 466	531 388	584 369	549 312	magenta	cyan	green	orange	1	706 433	735 315	717 370	757 454	0	8	0	8	0	NaN	NaN	NaN
5	12	2.000454e-01	3.500497e-01	5.001131e-01	2.000214e-01	4.000649e-01	2.000310e+00	0	1	Calibri	 	 	gray	blue	magenta	red	green	1	578 478	562 411	569 286	509 393	purple	green	gray	orange	1	701 449	766 420	734 310	721 509	0	0	0	8	1	NaN	NaN	NaN
5	13	1.166879e-01	3.500414e-01	5.001035e-01	2.000342e-01	4.000581e-01	2.000324e+00	0	1	Calibri	 	 	red	purple	yellow	magenta	blue	2	740 358	728 444	701 315	775 413	cyan	black	gray	pink	2	571 341	535 408	582 496	534 465	0	0	0	8	1	NaN	NaN	NaN
5	14	1.000349e-01	3.500291e-01	5.001053e-01	2.000374e-01	4.000624e-01	2.000321e+00	1	4	Calibri	 	 	purple	magenta	green	black	white	2	701 373	748 345	721 493	695 431	gray	orange	green	yellow	2	553 429	584 297	583 381	552 484	0	0	0	6	1	NaN	NaN	NaN
5	15	1.166862e-01	3.500617e-01	5.000891e-01	2.000322e-01	4.000385e-01	2.000342e+00	1	1	Calibri	o	9	magenta	gray	yellow	cyan	black	1	564 401	534 443	576 334	523 368	cyan	magenta	green	yellow	1	753 344	742 427	733 489	705 314	0	8	0	6	0	NaN	NaN	NaN
5	16	2.000604e-01	3.500918e-01	5.000781e-01	1.999949e-01	4.000452e-01	2.000334e+00	0	3	Calibri	 	 	black	gray	orange	red	pink	2	697 435	761 374	705 504	702 336	gray	orange	purple	green	2	587 316	531 371	583 446	517 422	0	0	0	8	1	NaN	NaN	NaN
5	17	1.166817e-01	3.500401e-01	5.000856e-01	2.000606e-01	4.000641e-01	2.000303e+00	1	3	Calibri	o	2	yellow	orange	black	white	gray	2	745 456	769 354	735 312	705 518	magenta	black	white	orange	2	516 445	568 331	544 397	587 463	0	6	0	6	0	NaN	NaN	NaN
5	18	1.833779e-01	3.500935e-01	5.000771e-01	2.000292e-01	4.000281e-01	2.000343e+00	0	4	Calibri	k	2	pink	black	yellow	blue	white	2	774 398	733 342	704 441	704 500	cyan	red	magenta	blue	2	554 323	569 493	521 365	536 439	0	6	0	8	0	NaN	NaN	NaN


task	trial	fix1dur	fix2dur	fix3dur	s1dur	s2dur	s3dur	change	target	font	Astim	Vstim	newcolor	ccol1	ccol2	ccol3	ccol4	cside	cpos1	cpos2	cpos3	cpos4	rcol1	rcol2	rcol3	rcol4	rside	rpos1	rpos2	rpos3	rpos4	Resp1	CorAns1	Resp2	CorAns2	Acc1	Acc2	RT1	RT2


task	trial	fix1dur	fix2dur	fix3dur	s1dur	s2dur	s3dur	change	target	font	Astim	Vstim	newcolor	ccol1	ccol2	ccol3	ccol4	cside	cpos1	cpos2	cpos3	cpos4	rcol1	rcol2	rcol3	rcol4	rside	rpos1	rpos2	rpos3	rpos4	Resp1	CorAns1	Resp2	CorAns2	Acc1	Acc2	RT1	RT2


task	trial	fix1dur	fix2dur	fix3dur	s1dur	s2dur	s3dur	change	target	font	Astim	Vstim	newcolor	ccol1	ccol2	ccol3	ccol4	cside	cpos1	cpos2	cpos3	cpos4	rcol1	rcol2	rcol3	rcol4	rside	rpos1	rpos2	rpos3	rpos4	Resp1	CorAns1	Resp2	CorAns2	Acc1	Acc2	RT1	RT2
1	1	1.835254e-01	3.500347e-01	5.002088e-01	1.999034e-01	1.283517e+00	2.000316e+00	1	1	Calibri	 	 	blue	orange	cyan	gray	red	1	554 442	552 347	588 394	582 281	black	cyan	pink	orange	1	759 434	714 296	693 352	695 517	0	0	0	6	1	NaN	NaN	NaN
1	2	1.667373e-01	3.500312e-01	5.001752e-01	2.001012e-01	3.999225e-01	2.000361e+00	1	1	Calibri	 	 	orange	pink	white	yellow	blue	2	697 323	757 371	721 416	695 505	orange	pink	gray	yellow	2	548 432	554 366	553 500	586 325	0	0	0	6	1	NaN	NaN	NaN
1	3	2.000681e-01	3.500660e-01	5.001115e-01	1.999968e-01	3.999521e-01	2.000397e+00	1	2	Calibri	o	2	orange	pink	white	gray	green	2	706 513	705 286	713 360	764 457	gray	red	magenta	yellow	2	509 442	585 375	553 324	505 378	0	8	0	6	0	NaN	NaN	NaN
1	4	1.832942e-01	3.500748e-01	5.002562e-01	2.001247e-01	3.999218e-01	2.000221e+00	0	4	Calibri	o	2	pink	green	white	blue	orange	1	546 459	549 378	581 328	521 334	red	blue	black	pink	1	754 437	697 359	738 320	735 492	0	8	0	8	0	NaN	NaN	NaN
1	5	1.500665e-01	3.501236e-01	5.001071e-01	1.998997e-01	3.999910e-01	2.000427e+00	1	1	Calibri	 	 	pink	red	purple	white	green	1	519 429	571 320	577 454	573 509	purple	orange	blue	white	1	705 516	708 444	736 325	756 425	0	0	0	6	1	NaN	NaN	NaN
1	6	2.000196e-01	3.501442e-01	5.002431e-01	2.000049e-01	3.998642e-01	2.000172e+00	1	4	Calibri	k	9	yellow	blue	purple	green	magenta	1	556 389	540 330	510 421	572 457	red	white	pink	blue	1	769 359	737 453	706 381	720 306	0	6	0	6	0	NaN	NaN	NaN
1	7	1.666755e-01	3.500605e-01	5.000777e-01	2.000283e-01	4.000796e-01	2.000308e+00	1	2	Calibri	o	9	blue	pink	green	magenta	purple	2	719 417	704 504	702 315	771 398	green	yellow	blue	white	2	570 505	543 436	558 295	520 337	0	8	0	6	0	NaN	NaN	NaN
1	8	1.833685e-01	3.501462e-01	5.000781e-01	2.000388e-01	3.999884e-01	2.000317e+00	1	4	Calibri	o	2	yellow	black	white	green	magenta	1	536 476	513 349	557 397	574 305	white	orange	red	yellow	1	701 435	710 354	756 422	704 493	0	8	0	6	0	NaN	NaN	NaN
1	9	1.333226e-01	3.500618e-01	5.000649e-01	2.000408e-01	4.000759e-01	2.000329e+00	0	2	Calibri	o	9	cyan	blue	black	magenta	gray	2	721 441	724 374	693 504	730 309	white	red	magenta	black	2	572 517	561 322	578 440	527 461	0	8	0	8	0	NaN	NaN	NaN
1	10	1.831270e-01	3.500395e-01	5.002267e-01	2.000506e-01	4.000672e-01	2.000321e+00	0	1	Calibri	 	 	pink	magenta	red	yellow	orange	1	585 513	551 317	507 380	581 445	gray	black	cyan	magenta	1	748 426	697 359	715 510	755 338	0	0	0	8	1	NaN	NaN	NaN
1	11	1.165860e-01	3.501764e-01	5.001010e-01	2.000234e-01	3.999501e-01	2.000445e+00	0	2	Calibri	 	 	purple	cyan	pink	magenta	red	2	753 413	700 426	732 326	700 512	green	yellow	cyan	magenta	2	512 354	550 314	558 483	544 427	0	0	0	8	1	NaN	NaN	NaN
1	12	1.333219e-01	3.500142e-01	5.001018e-01	2.000885e-01	3.999665e-01	2.000489e+00	1	1	Calibri	o	9	magenta	black	orange	green	yellow	1	526 474	572 421	556 319	509 403	blue	magenta	red	gray	1	752 340	698 518	752 415	702 459	0	8	0	6	0	NaN	NaN	NaN
1	13	1.167297e-01	3.500474e-01	5.002562e-01	2.000074e-01	3.999834e-01	2.000224e+00	1	4	Calibri	 	 	white	black	cyan	orange	pink	1	506 388	578 470	562 392	548 302	black	magenta	cyan	white	1	738 380	693 515	704 322	743 461	0	0	0	6	1	NaN	NaN	NaN
1	14	1.666330e-01	3.499669e-01	5.001817e-01	2.001489e-01	4.000094e-01	2.000431e+00	0	4	Calibri	 	 	cyan	orange	magenta	yellow	green	2	748 361	719 307	739 456	714 516	pink	black	cyan	gray	2	516 400	574 507	542 331	584 275	0	0	0	8	1	NaN	NaN	NaN
1	15	1.833824e-01	3.500696e-01	5.001430e-01	1.999443e-01	4.000470e-01	2.000386e+00	0	2	Calibri	 	 	purple	orange	magenta	white	cyan	2	720 444	706 305	704 504	768 356	blue	white	green	cyan	2	565 377	587 498	532 332	553 448	0	0	0	8	1	NaN	NaN	NaN
1	16	1.833589e-01	3.500144e-01	5.000866e-01	2.000750e-01	4.000561e-01	2.000393e+00	1	3	Calibri	 	 	cyan	blue	white	pink	red	1	563 420	519 345	558 509	575 298	black	blue	red	gray	1	773 427	698 419	706 346	709 493	0	0	0	6	1	NaN	NaN	NaN
1	17	1.499393e-01	3.501809e-01	5.001163e-01	2.000320e-01	3.999384e-01	2.000308e+00	1	2	Calibri	 	 	gray	pink	orange	red	purple	2	747 347	696 464	756 469	730 414	gray	green	yellow	white	2	524 351	563 430	584 371	510 416	0	0	0	6	1	NaN	NaN	NaN
1	18	1.333704e-01	3.500775e-01	5.001754e-01	2.000356e-01	3.999947e-01	2.000244e+00	0	2	Calibri	o	9	blue	yellow	black	cyan	pink	2	723 509	760 365	730 447	706 290	green	black	orange	gray	2	533 481	527 414	543 337	587 493	0	8	0	8	0	NaN	NaN	NaN
1	19	1.833068e-01	3.500987e-01	5.001486e-01	2.000234e-01	3.999800e-01	2.000246e+00	1	4	Calibri	k	9	cyan	white	purple	pink	green	2	749 437	694 396	733 491	743 329	gray	pink	red	cyan	2	530 341	575 455	529 425	574 289	0	6	0	6	0	NaN	NaN	NaN
1	20	1.500150e-01	3.500978e-01	5.000949e-01	1.999492e-01	4.000133e-01	2.000439e+00	1	4	Calibri	o	2	yellow	pink	orange	red	gray	1	545 347	534 483	586 498	513 411	red	black	green	white	1	723 452	752 407	748 318	702 383	0	8	0	6	0	NaN	NaN	NaN
2	1	1.166882e-01	3.501116e-01	5.001258e-01	1.999809e-01	4.000075e-01	2.000281e+00	0	3	Calibri	 	 	white	gray	blue	black	purple	1	535 480	525 335	584 399	584 338	white	red	black	purple	1	767 412	729 307	743 464	708 386	0	0	0	8	1	NaN	NaN	NaN
2	2	1.167733e-01	3.500664e-01	5.001608e-01	1.999371e-01	4.000658e-01	2.000402e+00	0	3	Calibri	k	9	magenta	black	gray	orange	purple	1	567 301	544 493	556 358	505 393	magenta	pink	gray	green	1	753 405	696 466	699 391	700 282	0	8	0	8	0	NaN	NaN	NaN
2	3	1.161959e-01	3.500513e-01	5.000823e-01	2.000989e-01	4.000044e-01	2.000468e+00	0	3	Calibri	 	 	white	cyan	gray	red	pink	1	582 296	536 414	583 509	533 327	pink	gray	green	magenta	1	723 491	749 370	696 437	704 305	0	0	0	8	1	NaN	NaN	NaN
2	4	1.833663e-01	3.501127e-01	5.000827e-01	2.000411e-01	4.000038e-01	2.000371e+00	1	4	Calibri	 	 	cyan	black	white	red	purple	2	710 327	724 451	732 393	710 501	cyan	orange	purple	black	2	528 473	565 340	587 485	566 417	0	0	0	6	1	NaN	NaN	NaN
2	5	1.833260e-01	3.500457e-01	5.001059e-01	2.000243e-01	4.000629e-01	2.000384e+00	1	4	Calibri	 	 	yellow	cyan	purple	magenta	gray	2	722 323	726 479	729 414	764 369	pink	gray	magenta	purple	2	530 339	568 431	516 392	579 375	0	0	0	6	1	NaN	NaN	NaN
2	6	1.166264e-01	3.501043e-01	5.001573e-01	2.000046e-01	4.000016e-01	2.000257e+00	0	3	Calibri	o	9	green	pink	red	blue	gray	1	559 384	534 452	558 327	588 506	red	white	blue	purple	1	697 525	708 357	770 377	699 283	0	8	0	8	0	NaN	NaN	NaN
2	7	1.500316e-01	3.499254e-01	5.001140e-01	2.001689e-01	4.000708e-01	2.000274e+00	1	1	Calibri	 	 	blue	yellow	magenta	red	white	2	737 316	755 446	726 498	696 421	green	red	white	gray	2	534 422	578 359	510 367	588 462	0	0	0	6	1	NaN	NaN	NaN
2	8	1.500982e-01	3.500875e-01	5.000892e-01	1.999851e-01	4.000189e-01	2.000363e+00	0	1	Calibri	k	9	magenta	orange	purple	cyan	red	1	572 478	573 322	522 408	580 395	magenta	red	blue	pink	1	750 436	744 335	711 491	694 294	0	8	0	8	0	NaN	NaN	NaN
2	9	1.665827e-01	3.501076e-01	5.001330e-01	2.000525e-01	3.999968e-01	2.000285e+00	1	4	Calibri	o	9	orange	white	yellow	cyan	red	2	709 445	710 320	721 509	760 424	black	red	white	blue	2	563 339	571 443	580 289	521 404	0	8	0	6	0	NaN	NaN	NaN
2	10	1.499582e-01	3.500209e-01	5.001232e-01	2.000177e-01	4.000597e-01	2.000289e+00	0	2	Calibri	 	 	cyan	yellow	purple	magenta	white	1	536 433	578 521	565 353	583 402	purple	pink	gray	yellow	1	698 440	693 282	710 501	768 409	0	0	0	8	1	NaN	NaN	NaN
2	11	1.666720e-01	3.501432e-01	5.001459e-01	2.000329e-01	3.999697e-01	2.000294e+00	1	1	Calibri	o	9	white	green	cyan	pink	yellow	2	748 373	702 298	746 440	721 490	green	magenta	cyan	blue	2	525 391	535 464	558 343	585 442	0	8	0	6	0	NaN	NaN	NaN
2	12	2.000726e-01	3.500517e-01	5.000804e-01	2.000219e-01	4.000131e-01	2.000340e+00	0	3	Calibri	o	2	green	red	cyan	gray	orange	2	722 479	735 321	728 389	769 436	magenta	cyan	pink	orange	2	538 404	581 500	557 324	534 474	0	6	0	8	0	NaN	NaN	NaN
2	13	1.167079e-01	3.500678e-01	5.000660e-01	2.000590e-01	4.000090e-01	2.000338e+00	1	1	Calibri	o	9	gray	black	magenta	white	orange	2	727 381	703 504	697 448	720 315	purple	gray	orange	red	2	539 425	550 338	563 477	570 285	0	8	0	6	0	NaN	NaN	NaN
2	14	1.833666e-01	3.500522e-01	5.001649e-01	2.000188e-01	4.000688e-01	2.000328e+00	1	2	Calibri	 	 	green	blue	red	white	black	2	693 387	774 401	696 302	712 499	yellow	green	red	purple	2	546 418	573 309	573 484	520 367	0	0	0	6	1	NaN	NaN	NaN
2	15	1.333989e-01	3.500556e-01	5.000895e-01	1.999335e-01	4.000610e-01	2.000333e+00	1	4	Calibri	o	2	blue	magenta	pink	green	yellow	2	723 460	745 387	705 510	699 294	pink	gray	blue	purple	2	577 469	570 282	555 398	553 344	0	6	0	6	0	NaN	NaN	NaN
2	16	1.666155e-01	3.498986e-01	5.000830e-01	2.001616e-01	4.000527e-01	2.000402e+00	1	1	Calibri	 	 	green	gray	orange	pink	magenta	1	586 376	545 417	527 329	576 294	yellow	blue	black	magenta	1	729 496	740 351	700 391	696 317	0	0	0	6	1	NaN	NaN	NaN
2	17	1.833965e-01	3.501005e-01	5.000813e-01	2.000127e-01	4.000381e-01	2.000297e+00	0	1	Calibri	o	2	yellow	green	purple	pink	cyan	2	752 453	693 309	770 365	699 460	yellow	green	black	cyan	2	574 392	540 311	522 369	578 510	0	6	0	8	0	NaN	NaN	NaN
2	18	1.500217e-01	3.500557e-01	5.001321e-01	2.000876e-01	4.000084e-01	2.000270e+00	0	4	Calibri	o	2	yellow	blue	purple	white	orange	1	544 399	538 346	584 282	571 514	magenta	orange	black	gray	1	745 448	714 341	693 495	765 400	0	6	0	8	0	NaN	NaN	NaN
2	19	1.500098e-01	3.500633e-01	5.000359e-01	2.000285e-01	4.001101e-01	2.000323e+00	1	4	Calibri	o	2	gray	blue	red	orange	pink	2	723 457	758 389	748 336	694 311	green	blue	pink	red	2	544 350	514 422	562 490	574 411	0	6	0	6	0	NaN	NaN	NaN
2	20	1.166191e-01	3.500154e-01	5.000788e-01	2.001530e-01	4.000078e-01	2.000294e+00	1	2	Calibri	 	 	black	orange	red	purple	pink	1	568 507	582 298	578 422	528 380	yellow	green	red	purple	1	742 440	745 313	736 375	693 420	0	0	0	6	1	NaN	NaN	NaN
5	1	1.833797e-01	3.500953e-01	5.000757e-01	1.999702e-01	4.000314e-01	2.000329e+00	1	1	Calibri	 	 	blue	black	red	gray	purple	2	697 519	695 323	751 390	694 435	pink	yellow	magenta	black	2	575 399	535 331	542 456	586 323	0	0	0	6	1	NaN	NaN	NaN
5	2	1.667006e-01	3.499733e-01	5.001682e-01	2.001160e-01	4.000590e-01	2.000238e+00	0	2	Calibri	 	 	purple	cyan	white	black	pink	1	544 429	544 337	586 520	575 294	green	white	yellow	purple	1	746 483	736 365	717 293	695 503	0	0	0	8	1	NaN	NaN	NaN
5	3	1.333832e-01	3.500665e-01	5.000628e-01	1.999826e-01	4.000748e-01	2.000331e+00	1	2	Calibri	 	 	yellow	red	green	orange	gray	2	750 460	706 419	761 348	704 285	black	orange	green	blue	2	584 496	544 352	560 413	507 432	0	0	0	6	1	NaN	NaN	NaN
5	4	1.499836e-01	3.500009e-01	5.000809e-01	2.000768e-01	4.000687e-01	2.000343e+00	1	4	Calibri	 	 	orange	green	pink	cyan	magenta	1	571 379	515 380	585 441	532 319	pink	gray	cyan	magenta	1	732 472	752 401	694 388	701 283	0	0	0	6	1	NaN	NaN	NaN
5	5	1.500253e-01	3.500574e-01	5.000968e-01	2.000343e-01	4.000584e-01	2.000365e+00	1	3	Calibri	 	 	gray	red	green	yellow	purple	1	520 379	568 452	564 317	581 382	cyan	pink	green	purple	1	725 355	730 299	696 434	736 474	0	0	0	6	1	NaN	NaN	NaN
5	6	1.833617e-01	3.501202e-01	5.001253e-01	1.999822e-01	4.000114e-01	2.000270e+00	0	1	Calibri	o	9	cyan	pink	orange	yellow	red	2	743 366	726 437	729 306	696 498	purple	green	yellow	gray	2	568 341	585 461	534 390	510 436	0	8	0	8	0	NaN	NaN	NaN
5	7	1.499907e-01	3.500519e-01	5.000496e-01	2.000408e-01	4.000945e-01	2.000456e+00	1	1	Calibri	 	 	pink	yellow	green	black	white	1	532 383	572 330	580 470	517 460	orange	purple	cyan	white	1	743 461	768 400	693 294	694 412	0	0	0	6	1	NaN	NaN	NaN
5	8	1.334114e-01	3.500635e-01	5.000879e-01	1.999764e-01	4.000542e-01	2.000421e+00	0	2	Calibri	o	9	white	magenta	gray	purple	orange	1	510 436	525 349	586 291	581 415	black	green	purple	cyan	1	733 344	713 441	753 394	695 504	0	8	0	8	0	NaN	NaN	NaN
5	9	1.333801e-01	3.501109e-01	5.000417e-01	2.000011e-01	4.000515e-01	2.000382e+00	0	2	Calibri	o	2	black	white	green	pink	cyan	1	524 459	534 393	556 320	588 432	orange	green	black	white	1	725 405	698 359	701 469	695 525	0	6	0	8	0	NaN	NaN	NaN
5	10	1.166493e-01	3.500534e-01	5.001238e-01	1.999855e-01	4.000600e-01	2.000314e+00	0	4	Calibri	 	 	black	orange	white	yellow	green	2	713 430	693 278	764 450	766 360	white	magenta	black	yellow	2	510 407	548 476	587 435	566 346	0	0	0	8	1	NaN	NaN	NaN
5	11	1.834158e-01	3.500587e-01	5.001365e-01	1.999820e-01	4.000611e-01	2.000381e+00	0	2	Calibri	o	2	white	orange	purple	red	magenta	1	563 291	519 436	580 504	586 428	black	cyan	white	blue	1	703 317	757 457	714 491	698 425	0	6	0	8	0	NaN	NaN	NaN
5	12	1.166713e-01	3.500647e-01	5.000464e-01	1.999514e-01	4.000959e-01	2.000379e+00	0	4	Calibri	k	2	purple	yellow	cyan	white	green	2	746 482	720 355	704 432	775 392	magenta	green	blue	yellow	2	544 423	566 492	525 372	578 316	0	6	0	8	0	NaN	NaN	NaN
5	13	1.167835e-01	3.500059e-01	5.001414e-01	1.999739e-01	4.000631e-01	2.000318e+00	1	1	Calibri	 	 	pink	black	blue	red	orange	1	562 383	573 473	579 317	515 456	purple	blue	orange	gray	1	758 438	695 511	703 315	744 353	0	0	0	6	1	NaN	NaN	NaN
5	14	1.833694e-01	3.501193e-01	5.000906e-01	1.999738e-01	4.000072e-01	2.000373e+00	0	1	Calibri	 	 	white	gray	black	green	orange	1	552 303	530 422	575 390	584 468	gray	yellow	purple	magenta	1	732 429	729 304	740 490	706 364	0	0	0	8	1	NaN	NaN	NaN
5	15	1.666568e-01	3.500559e-01	5.000623e-01	2.000624e-01	4.000848e-01	2.000399e+00	1	1	Calibri	 	 	red	orange	gray	black	blue	1	576 483	584 403	559 301	504 384	yellow	orange	cyan	gray	1	720 323	730 420	757 366	722 477	0	0	0	6	1	NaN	NaN	NaN
5	16	1.333292e-01	3.501332e-01	5.001151e-01	2.000401e-01	3.999997e-01	2.000334e+00	0	3	Calibri	 	 	purple	magenta	white	black	cyan	1	582 372	574 478	569 310	523 461	white	cyan	black	green	1	727 468	738 389	715 319	706 519	0	0	0	8	1	NaN	NaN	NaN
5	17	1.500348e-01	3.500572e-01	5.000868e-01	2.000225e-01	4.000594e-01	2.000376e+00	1	3	Calibri	k	9	blue	red	gray	pink	yellow	2	699 488	731 432	710 294	768 356	purple	gray	green	magenta	2	583 472	508 377	584 374	538 319	0	8	0	6	0	NaN	NaN	NaN
5	18	1.998654e-01	3.501141e-01	5.001492e-01	2.000305e-01	4.000055e-01	2.000438e+00	1	1	Calibri	k	9	blue	gray	white	purple	cyan	2	731 395	728 327	707 473	761 459	white	magenta	cyan	red	2	571 393	570 476	509 368	521 453	0	8	0	6	0	NaN	NaN	NaN
5	19	1.334078e-01	3.500590e-01	5.000941e-01	1.999603e-01	4.000585e-01	2.000313e+00	0	1	Calibri	 	 	magenta	purple	orange	cyan	blue	1	531 403	565 449	586 352	566 304	yellow	magenta	red	green	1	764 445	737 380	694 294	725 481	0	0	0	8	1	NaN	NaN	NaN
5	20	1.999903e-01	3.500031e-01	5.001307e-01	2.000300e-01	4.000703e-01	2.000352e+00	0	3	Calibri	o	2	magenta	red	yellow	pink	orange	2	712 396	757 466	708 499	761 377	red	magenta	blue	gray	2	523 348	527 434	581 411	556 507	0	6	0	8	0	NaN	NaN	NaN
5	21	1.333072e-01	3.500049e-01	5.001468e-01	2.000852e-01	4.000574e-01	2.000423e+00	1	2	Calibri	o	9	pink	red	green	cyan	black	1	582 477	586 369	519 441	543 320	red	purple	orange	white	1	739 428	709 507	709 354	696 280	0	8	0	6	0	NaN	NaN	NaN
5	22	1.667555e-01	3.500050e-01	5.001992e-01	2.000202e-01	4.000685e-01	2.000205e+00	0	4	Calibri	 	 	yellow	gray	white	blue	cyan	1	569 488	587 352	567 418	511 369	orange	pink	purple	black	1	755 363	728 311	759 448	703 439	0	0	0	8	1	NaN	NaN	NaN
5	23	1.162727e-01	3.500711e-01	5.000850e-01	2.001565e-01	3.999294e-01	2.000323e+00	0	1	Calibri	 	 	green	magenta	blue	cyan	purple	1	562 410	587 517	523 374	573 291	red	yellow	green	orange	1	714 358	693 284	693 516	770 411	0	0	0	8	1	NaN	NaN	NaN
5	24	1.499988e-01	3.499851e-01	5.001429e-01	2.001015e-01	4.000633e-01	2.000265e+00	0	3	Calibri	 	 	yellow	black	orange	purple	white	1	572 463	507 395	519 344	587 334	magenta	yellow	green	white	1	695 515	753 417	748 473	712 326	0	0	0	8	1	NaN	NaN	NaN
5	25	1.166738e-01	3.501192e-01	5.000983e-01	2.000197e-01	4.000030e-01	2.000317e+00	1	3	Calibri	 	 	black	orange	green	gray	yellow	2	751 440	715 347	700 467	699 412	blue	green	orange	white	2	523 423	536 319	570 466	560 380	0	0	0	6	1	NaN	NaN	NaN
5	26	1.499662e-01	3.500202e-01	5.000744e-01	2.000429e-01	4.000513e-01	2.000317e+00	0	4	Calibri	k	2	black	white	green	orange	blue	1	510 365	556 397	564 463	571 517	yellow	magenta	black	red	1	708 511	754 350	722 292	726 459	0	6	0	8	0	NaN	NaN	NaN
5	27	1.166779e-01	3.499979e-01	5.000844e-01	2.000871e-01	4.000634e-01	2.000325e+00	0	3	Calibri	o	2	red	gray	orange	purple	white	1	553 306	533 360	524 467	587 391	red	green	cyan	purple	1	762 456	769 382	707 481	708 282	0	6	0	8	0	NaN	NaN	NaN
5	28	1.500280e-01	3.500492e-01	5.001385e-01	2.000967e-01	3.999966e-01	2.000461e+00	0	3	Calibri	 	 	blue	magenta	black	purple	cyan	1	558 411	527 333	564 468	516 443	magenta	orange	purple	pink	1	713 461	721 318	763 405	713 384	0	0	0	8	1	NaN	NaN	NaN
5	29	1.334449e-01	3.501598e-01	5.001138e-01	1.999514e-01	3.999216e-01	2.000273e+00	0	2	Calibri	k	9	magenta	cyan	gray	blue	purple	2	714 471	710 316	772 379	712 412	white	cyan	red	black	2	583 468	576 383	519 443	576 293	0	8	0	8	0	NaN	NaN	NaN
5	30	1.667219e-01	3.500818e-01	5.000775e-01	1.999118e-01	4.000440e-01	2.000323e+00	0	4	Calibri	 	 	red	blue	cyan	purple	black	2	702 394	702 282	766 412	744 317	cyan	green	gray	blue	2	566 409	529 341	583 466	582 323	0	0	0	8	1	NaN	NaN	NaN
5	31	1.165877e-01	3.500605e-01	5.000823e-01	1.999712e-01	4.000640e-01	2.000335e+00	1	1	Calibri	o	9	purple	white	yellow	cyan	pink	1	534 321	529 481	585 308	588 421	pink	magenta	white	red	1	721 307	705 395	773 374	738 496	0	8	0	6	0	NaN	NaN	NaN
5	32	1.835005e-01	3.500384e-01	5.001406e-01	1.999144e-01	4.000637e-01	2.000461e+00	0	1	Calibri	 	 	pink	red	purple	white	green	1	587 333	524 454	588 414	572 492	cyan	red	pink	blue	1	752 408	717 305	701 386	717 462	0	0	0	8	1	NaN	NaN	NaN
5	33	1.334726e-01	3.500684e-01	5.000842e-01	1.999621e-01	4.000035e-01	2.000531e+00	0	4	Calibri	o	9	orange	pink	magenta	blue	cyan	2	696 280	753 429	722 358	728 497	purple	green	white	orange	2	509 376	582 347	526 465	580 495	0	8	0	8	0	NaN	NaN	NaN
5	34	1.166872e-01	3.501864e-01	5.001350e-01	2.000283e-01	3.999419e-01	2.000478e+00	0	4	Calibri	 	 	yellow	black	blue	green	cyan	2	705 296	735 382	742 483	703 423	purple	pink	green	blue	2	551 435	507 386	561 491	532 335	0	0	0	8	1	NaN	NaN	NaN
5	35	1.496503e-01	3.501710e-01	5.000789e-01	1.999608e-01	3.999523e-01	2.000403e+00	0	3	Calibri	o	9	cyan	purple	gray	pink	yellow	2	697 435	713 326	753 362	743 483	pink	purple	gray	blue	2	544 349	588 444	588 274	566 491	0	8	0	8	0	NaN	NaN	NaN
5	36	1.333030e-01	3.500547e-01	5.000452e-01	2.000262e-01	4.001708e-01	2.000312e+00	0	1	Calibri	k	9	blue	gray	purple	green	red	2	738 318	718 473	694 393	758 407	purple	pink	white	blue	2	524 329	553 380	571 492	582 326	0	8	0	8	0	NaN	NaN	NaN
5	37	1.833131e-01	3.501253e-01	5.001119e-01	2.000332e-01	3.999935e-01	2.000471e+00	1	1	Calibri	k	2	magenta	orange	red	green	black	2	758 390	706 469	701 365	699 289	white	magenta	gray	orange	2	587 461	546 332	529 454	530 386	0	6	0	6	0	NaN	NaN	NaN
5	38	1.333524e-01	3.498394e-01	5.000805e-01	2.002034e-01	4.000631e-01	2.000328e+00	0	4	Calibri	 	 	cyan	black	blue	purple	orange	1	535 457	541 391	556 339	588 508	purple	green	yellow	orange	1	762 421	708 492	693 282	696 354	0	0	0	8	1	NaN	NaN	NaN
5	39	1.833808e-01	3.501996e-01	5.000414e-01	2.000193e-01	3.999578e-01	2.000326e+00	0	2	Calibri	 	 	red	gray	pink	magenta	yellow	2	737 412	740 494	710 343	707 287	black	white	magenta	purple	2	527 368	541 420	587 389	568 467	0	0	0	8	1	NaN	NaN	NaN
5	40	2.000844e-01	3.499350e-01	5.002351e-01	2.000969e-01	4.000685e-01	2.000172e+00	1	2	Calibri	o	2	gray	purple	yellow	cyan	black	1	508 412	565 377	521 464	541 322	yellow	purple	green	cyan	1	767 410	693 453	711 513	704 298	0	6	0	6	0	NaN	NaN	NaN


task	trial	fix1dur	fix2dur	fix3dur	s1dur	s2dur	s3dur	change	target	font	Astim	Vstim	newcolor	ccol1	ccol2	ccol3	ccol4	cside	cpos1	cpos2	cpos3	cpos4	rcol1	rcol2	rcol3	rcol4	rside	rpos1	rpos2	rpos3	rpos4	Resp1	CorAns1	Resp2	CorAns2	Acc1	Acc2	RT1	RT2


task	trial	fix1dur	fix2dur	fix3dur	s1dur	s2dur	s3dur	change	target	font	Astim	Vstim	newcolor	ccol1	ccol2	ccol3	ccol4	cside	cpos1	cpos2	cpos3	cpos4	rcol1	rcol2	rcol3	rcol4	rside	rpos1	rpos2	rpos3	rpos4	Resp1	CorAns1	Resp2	CorAns2	Acc1	Acc2	RT1	RT2


task	trial	fix1dur	fix2dur	fix3dur	s1dur	s2dur	s3dur	change	target	font	Astim	Vstim	newcolor	ccol1	ccol2	ccol3	ccol4	cside	cpos1	cpos2	cpos3	cpos4	rcol1	rcol2	rcol3	rcol4	rside	rpos1	rpos2	rpos3	rpos4	Resp1	CorAns1	Resp2	CorAns2	Acc1	Acc2	RT1	RT2


task	trial	fix1dur	fix2dur	fix3dur	s1dur	s2dur	s3dur	change	target	font	Astim	Vstim	newcolor	ccol1	ccol2	ccol3	ccol4	cside	cpos1	cpos2	cpos3	cpos4	rcol1	rcol2	rcol3	rcol4	rside	rpos1	rpos2	rpos3	rpos4	Resp1	CorAns1	Resp2	CorAns2	Acc1	Acc2	RT1	RT2
1	1	1.667715e-01	3.498886e-01	5.001969e-01	2.000267e-01	1.233535e+00	2.000239e+00	0	1	Calibri	k	9	black	red	pink	purple	orange	2	743 341	737 480	708 383	720 289	red	cyan	yellow	magenta	2	530 425	559 302	533 348	549 480	0	6	0	8	0	NaN	NaN	NaN
1	2	1.501591e-01	3.500363e-01	5.001962e-01	2.000093e-01	3.999099e-01	2.000362e+00	1	3	Calibri	o	9	purple	magenta	blue	black	cyan	2	756 448	718 495	706 332	707 387	gray	green	pink	black	2	511 384	573 323	578 509	585 412	0	8	0	6	0	NaN	NaN	NaN
1	3	1.332901e-01	3.501075e-01	5.001840e-01	2.000036e-01	3.999588e-01	2.000392e+00	1	3	Calibri	 	 	yellow	blue	purple	pink	magenta	1	572 350	524 456	547 300	532 396	red	orange	pink	green	1	717 491	754 383	710 319	757 443	0	0	0	6	1	NaN	NaN	NaN
1	4	1.334061e-01	3.500692e-01	5.002661e-01	2.000456e-01	3.999093e-01	2.000210e+00	1	2	Calibri	o	2	green	white	cyan	magenta	purple	2	724 358	722 465	705 279	695 403	white	black	green	orange	2	534 394	584 309	588 415	519 449	0	8	0	6	0	NaN	NaN	NaN
1	5	1.667302e-01	3.501436e-01	5.001749e-01	1.999435e-01	3.998719e-01	2.000411e+00	1	1	Calibri	o	9	magenta	pink	white	green	orange	1	557 420	581 507	565 326	521 361	cyan	gray	magenta	purple	1	776 381	714 325	729 424	716 491	0	8	0	6	0	NaN	NaN	NaN
1	6	1.833794e-01	3.501208e-01	5.002625e-01	1.999311e-01	3.999733e-01	2.000260e+00	0	1	Calibri	 	 	cyan	black	green	magenta	yellow	1	530 482	559 399	574 515	515 358	purple	white	magenta	orange	1	707 321	750 393	744 478	695 393	0	0	0	8	1	NaN	NaN	NaN
1	7	1.335025e-01	3.501213e-01	5.001830e-01	1.999727e-01	3.999037e-01	2.000249e+00	0	1	Calibri	k	2	pink	blue	cyan	red	magenta	2	724 365	721 298	702 445	707 516	blue	purple	orange	white	2	510 405	547 486	573 323	585 522	0	6	0	8	0	NaN	NaN	NaN
1	8	1.500945e-01	3.500532e-01	5.002062e-01	1.999624e-01	4.000553e-01	2.000214e+00	1	4	Calibri	 	 	yellow	purple	blue	red	pink	2	712 310	748 386	701 483	693 379	black	magenta	gray	orange	2	562 508	557 305	515 382	580 414	0	0	0	6	1	NaN	NaN	NaN
1	9	9.989866e-02	3.500297e-01	5.001946e-01	2.001485e-01	3.999722e-01	2.000314e+00	1	4	Calibri	 	 	white	green	blue	magenta	red	2	743 375	694 507	701 345	733 444	magenta	black	pink	red	2	543 335	526 443	513 389	572 281	0	0	0	6	1	NaN	NaN	NaN
1	10	1.333850e-01	3.500597e-01	5.002009e-01	2.000209e-01	3.999713e-01	2.000220e+00	1	4	Calibri	 	 	white	yellow	magenta	black	pink	1	518 453	519 398	587 347	587 281	yellow	purple	black	white	1	708 386	766 447	711 296	702 482	0	0	0	6	1	NaN	NaN	NaN
1	11	1.332098e-01	3.498991e-01	5.002150e-01	2.002083e-01	4.000470e-01	2.000271e+00	0	3	Calibri	o	9	red	purple	orange	cyan	black	2	698 407	760 395	727 458	716 307	magenta	orange	pink	black	2	557 492	588 334	539 356	532 425	0	8	0	8	0	NaN	NaN	NaN
1	12	1.834563e-01	3.500746e-01	5.002031e-01	1.998646e-01	4.000437e-01	2.000307e+00	1	3	Calibri	 	 	orange	red	yellow	cyan	white	2	700 400	694 277	760 440	750 331	cyan	pink	magenta	red	2	534 433	515 344	581 344	568 487	0	0	0	6	1	NaN	NaN	NaN
1	13	1.999237e-01	3.501288e-01	5.000611e-01	2.000411e-01	4.000059e-01	2.000399e+00	1	1	Calibri	o	9	green	white	magenta	red	black	1	556 496	583 285	548 380	588 345	green	orange	pink	gray	1	709 498	739 386	699 310	696 416	0	8	0	6	0	NaN	NaN	NaN
1	14	1.333305e-01	3.500557e-01	5.001126e-01	2.000811e-01	3.999287e-01	2.000376e+00	0	3	Calibri	 	 	black	white	purple	yellow	pink	2	735 406	710 312	771 365	715 495	gray	yellow	red	cyan	2	578 283	549 405	562 513	516 354	0	0	0	8	1	NaN	NaN	NaN
1	15	1.834466e-01	3.501476e-01	5.000917e-01	1.998955e-01	3.999134e-01	2.000410e+00	1	1	Calibri	k	2	blue	red	yellow	white	magenta	1	555 353	562 455	579 400	574 512	purple	black	pink	white	1	719 434	713 339	766 397	706 515	0	6	0	6	0	NaN	NaN	NaN
1	16	1.832753e-01	3.500656e-01	5.000798e-01	2.000808e-01	4.000114e-01	2.000399e+00	0	2	Calibri	o	9	yellow	pink	gray	green	blue	2	736 498	755 328	760 425	705 408	red	white	magenta	pink	2	553 476	583 307	538 394	523 330	0	8	0	8	0	NaN	NaN	NaN
1	17	1.666953e-01	3.500847e-01	5.000977e-01	2.000269e-01	3.999973e-01	2.000351e+00	0	4	Calibri	 	 	black	gray	pink	purple	yellow	1	543 482	519 425	575 302	588 382	yellow	gray	pink	blue	1	694 402	727 443	751 339	696 489	0	0	0	8	1	NaN	NaN	NaN
1	18	1.500140e-01	3.500823e-01	5.001754e-01	1.999687e-01	4.000188e-01	2.000273e+00	0	3	Calibri	k	2	red	orange	gray	yellow	pink	1	581 501	517 351	575 306	584 434	white	red	magenta	orange	1	714 369	766 426	713 472	746 315	0	6	0	8	0	NaN	NaN	NaN
1	19	1.167190e-01	3.499701e-01	5.002054e-01	2.000257e-01	4.000593e-01	2.000209e+00	1	1	Calibri	k	2	orange	green	white	gray	pink	1	567 479	579 310	580 415	538 342	black	magenta	white	gray	1	715 289	709 485	744 430	762 358	0	6	0	6	0	NaN	NaN	NaN
1	20	1.333654e-01	3.501566e-01	5.001653e-01	2.000153e-01	3.999625e-01	2.000390e+00	0	4	Calibri	 	 	black	pink	white	green	red	2	766 392	702 480	738 343	713 398	red	white	black	yellow	2	567 440	564 379	581 500	578 304	0	0	0	8	1	NaN	NaN	NaN


task	trial	fix1dur	fix2dur	fix3dur	s1dur	s2dur	s3dur	change	target	font	Astim	Vstim	newcolor	ccol1	ccol2	ccol3	ccol4	cside	cpos1	cpos2	cpos3	cpos4	rcol1	rcol2	rcol3	rcol4	rside	rpos1	rpos2	rpos3	rpos4	Resp1	CorAns1	Resp2	CorAns2	Acc1	Acc2	RT1	RT2
1	1	1.667294e-01	3.500677e-01	5.002628e-01	1.999987e-01	1.266739e+00	2.000187e+00	1	4	Calibri	 	 	yellow	magenta	red	gray	purple	1	560 346	516 415	571 428	585 483	red	black	cyan	blue	1	715 480	758 359	695 283	699 338	0	0	0	6	1	NaN	NaN	NaN
1	2	1.332568e-01	3.502540e-01	5.002016e-01	2.000268e-01	3.998537e-01	2.000253e+00	1	2	Calibri	k	2	white	blue	gray	orange	red	1	513 376	586 491	565 369	580 309	white	blue	yellow	cyan	1	702 410	750 463	767 392	708 510	0	6	0	6	0	NaN	NaN	NaN
1	3	1.501058e-01	3.500765e-01	5.001141e-01	2.000259e-01	3.998767e-01	2.000478e+00	0	4	Calibri	o	2	orange	cyan	white	magenta	pink	2	762 346	719 487	711 323	754 446	cyan	blue	pink	magenta	2	577 456	523 390	541 316	586 282	0	8	0	8	0	NaN	NaN	NaN
1	4	1.166198e-01	3.499389e-01	5.000953e-01	2.001260e-01	4.000536e-01	2.000456e+00	0	3	Calibri	k	2	purple	green	gray	yellow	orange	1	585 300	547 418	504 389	527 334	purple	magenta	black	blue	1	753 391	718 345	707 516	707 431	0	6	0	8	0	NaN	NaN	NaN
1	5	1.501212e-01	3.500726e-01	5.001564e-01	1.998683e-01	4.000354e-01	2.000373e+00	1	3	Calibri	 	 	red	blue	white	gray	yellow	2	720 311	696 431	762 352	729 489	green	black	magenta	orange	2	578 485	568 397	515 434	529 333	0	0	0	6	1	NaN	NaN	NaN
1	6	1.668624e-01	3.501216e-01	5.002033e-01	2.000121e-01	3.998283e-01	2.000330e+00	1	2	Calibri	 	 	pink	black	orange	blue	magenta	1	585 307	529 411	578 471	588 397	orange	red	gray	pink	1	752 479	723 428	741 330	694 294	0	0	0	6	1	NaN	NaN	NaN
1	7	2.000781e-01	3.499498e-01	5.002173e-01	2.001046e-01	3.999687e-01	2.000205e+00	1	3	Calibri	 	 	yellow	white	blue	pink	green	1	527 326	557 379	522 465	562 512	purple	gray	pink	orange	1	744 322	719 464	760 379	693 350	0	0	0	6	1	NaN	NaN	NaN
1	8	1.333437e-01	3.500663e-01	5.002664e-01	2.000151e-01	4.000509e-01	2.000159e+00	1	1	Calibri	 	 	blue	white	yellow	magenta	green	1	534 461	555 361	579 407	557 300	red	blue	gray	green	1	730 380	739 493	727 300	694 457	0	0	0	6	1	NaN	NaN	NaN
1	9	1.833523e-01	3.500747e-01	5.002351e-01	2.001229e-01	3.998627e-01	2.000258e+00	0	4	Calibri	 	 	green	black	gray	magenta	purple	1	560 291	582 436	546 365	530 466	magenta	pink	blue	white	1	740 346	772 398	731 501	696 448	0	0	0	8	1	NaN	NaN	NaN
1	10	1.167948e-01	3.501680e-01	5.001882e-01	1.999397e-01	3.999392e-01	2.000247e+00	1	2	Calibri	 	 	black	blue	magenta	white	orange	1	548 325	524 412	588 472	584 365	black	white	orange	purple	1	732 418	765 377	706 372	716 513	0	0	0	6	1	NaN	NaN	NaN
1	11	2.000227e-01	3.501921e-01	5.002755e-01	2.000675e-01	3.998687e-01	2.000142e+00	1	3	Calibri	o	2	magenta	gray	pink	black	green	2	703 361	730 440	698 482	747 315	yellow	purple	gray	green	2	569 349	560 509	512 449	509 370	0	8	0	6	0	NaN	NaN	NaN
1	12	2.001189e-01	3.499557e-01	5.000772e-01	2.000200e-01	4.000305e-01	2.000413e+00	1	3	Calibri	o	2	red	cyan	white	black	green	2	727 402	749 478	706 287	741 325	pink	black	red	cyan	2	524 417	585 450	557 329	512 355	0	8	0	6	0	NaN	NaN	NaN
1	13	2.000069e-01	3.500747e-01	5.001548e-01	1.999796e-01	4.000512e-01	2.000263e+00	0	1	Calibri	o	2	yellow	blue	red	purple	orange	1	566 325	554 491	582 418	513 399	white	black	yellow	magenta	1	761 347	725 421	709 366	751 466	0	8	0	8	0	NaN	NaN	NaN
1	14	1.500561e-01	3.500307e-01	5.000639e-01	2.000423e-01	4.000915e-01	2.000342e+00	1	4	Calibri	 	 	cyan	white	purple	magenta	green	1	584 395	512 378	550 458	566 509	green	orange	yellow	magenta	1	712 455	760 391	738 307	714 365	0	0	0	6	1	NaN	NaN	NaN
1	15	1.496636e-01	3.500327e-01	5.000782e-01	2.000445e-01	4.000837e-01	2.000326e+00	1	4	Calibri	o	9	red	blue	cyan	yellow	gray	2	708 480	747 344	695 343	764 398	red	pink	blue	yellow	2	583 506	550 317	574 407	509 359	0	8	0	6	0	NaN	NaN	NaN
1	16	1.662772e-01	3.500677e-01	5.000965e-01	2.000270e-01	4.000459e-01	2.000325e+00	1	1	Calibri	k	9	white	cyan	black	red	magenta	2	708 338	726 475	727 390	696 524	black	magenta	red	cyan	2	538 384	575 327	574 464	517 447	0	6	0	6	0	NaN	NaN	NaN
1	17	1.500516e-01	3.500278e-01	5.001030e-01	2.000150e-01	4.000076e-01	2.000407e+00	0	2	Calibri	o	9	orange	red	yellow	gray	green	2	748 366	728 313	726 498	696 423	yellow	orange	cyan	pink	2	586 348	586 285	521 390	540 438	0	8	0	8	0	NaN	NaN	NaN
1	18	1.834206e-01	3.501594e-01	5.000885e-01	1.999790e-01	3.999738e-01	2.000387e+00	1	3	Calibri	k	9	cyan	gray	red	pink	green	1	553 299	568 426	524 386	576 368	orange	green	blue	pink	1	695 398	699 334	709 462	755 413	0	6	0	6	0	NaN	NaN	NaN
1	19	1.166663e-01	3.500235e-01	5.000738e-01	2.001240e-01	4.000093e-01	2.000377e+00	0	4	Calibri	 	 	red	magenta	blue	purple	cyan	2	722 491	756 372	695 415	709 349	white	yellow	magenta	gray	2	537 431	571 299	538 379	563 512	0	0	0	8	1	NaN	NaN	NaN
1	20	2.000837e-01	3.499365e-01	5.000968e-01	2.000765e-01	4.000728e-01	2.000331e+00	1	1	Calibri	o	2	cyan	red	green	gray	white	2	750 445	722 370	721 494	695 445	black	green	yellow	magenta	2	579 391	569 456	587 336	576 514	0	8	0	6	0	NaN	NaN	NaN


task	trial	fix1dur	fix2dur	fix3dur	s1dur	s2dur	s3dur	change	target	font	Astim	Vstim	newcolor	ccol1	ccol2	ccol3	ccol4	cside	cpos1	cpos2	cpos3	cpos4	rcol1	rcol2	rcol3	rcol4	rside	rpos1	rpos2	rpos3	rpos4	Resp1	CorAns1	Resp2	CorAns2	Acc1	Acc2	RT1	RT2


task	trial	fix1dur	fix2dur	fix3dur	s1dur	s2dur	s3dur	change	target	font	Astim	Vstim	newcolor	ccol1	ccol2	ccol3	ccol4	cside	cpos1	cpos2	cpos3	cpos4	rcol1	rcol2	rcol3	rcol4	rside	rpos1	rpos2	rpos3	rpos4	Resp1	CorAns1	Resp2	CorAns2	Acc1	Acc2	RT1	RT2
8	1	1.501596e-01	3.500944e-01	5.002623e-01	1.999725e-01	3.998786e-01	2.000246e+00	0	4	Calibri	o	9	cyan	yellow	orange	blue	green	1	538 413	570 365	556 471	543 314	purple	black	cyan	magenta	1	757 339	697 477	742 434	718 302	0	0	0	8	1	NaN	NaN	NaN
