

task	trial	fix1dur	fix2dur	fix3dur	s1dur	s2dur	s3dur	change	target	font	Astim	Vstim	newcolor	ccol1	ccol2	ccol3	ccol4	cside	cpos1	cpos2	cpos3	cpos4	rcol1	rcol2	rcol3	rcol4	rside	rpos1	rpos2	rpos3	rpos4	Resp1	CorAns1	Resp2	CorAns2	Acc1	Acc2	RT1	RT2


task	trial	fix1dur	fix2dur	fix3dur	s1dur	s2dur	s3dur	change	target	font	Astim	Vstim	newcolor	ccol1	ccol2	ccol3	ccol4	cside	cpos1	cpos2	cpos3	cpos4	rcol1	rcol2	rcol3	rcol4	rside	rpos1	rpos2	rpos3	rpos4	Resp1	CorAns1	Resp2	CorAns2	Acc1	Acc2	RT1	RT2


task	trial	fix1dur	fix2dur	fix3dur	s1dur	s2dur	s3dur	change	target	font	Astim	Vstim	newcolor	ccol1	ccol2	ccol3	ccol4	cside	cpos1	cpos2	cpos3	cpos4	rcol1	rcol2	rcol3	rcol4	rside	rpos1	rpos2	rpos3	rpos4	Resp1	CorAns1	Resp2	CorAns2	Acc1	Acc2	RT1	RT2


task	trial	fix1dur	fix2dur	fix3dur	s1dur	s2dur	s3dur	change	target	font	Astim	Vstim	newcolor	ccol1	ccol2	ccol3	ccol4	cside	cpos1	cpos2	cpos3	cpos4	rcol1	rcol2	rcol3	rcol4	rside	rpos1	rpos2	rpos3	rpos4	Resp1	CorAns1	Resp2	CorAns2	Acc1	Acc2	RT1	RT2


task	trial	fix1dur	fix2dur	fix3dur	s1dur	s2dur	s3dur	change	target	font	Astim	Vstim	newcolor	ccol1	ccol2	ccol3	ccol4	cside	cpos1	cpos2	cpos3	cpos4	rcol1	rcol2	rcol3	rcol4	rside	rpos1	rpos2	rpos3	rpos4	Resp1	CorAns1	Resp2	CorAns2	Acc1	Acc2	RT1	RT2


task	trial	fix1dur	fix2dur	fix3dur	s1dur	s2dur	s3dur	change	target	font	Astim	Vstim	newcolor	ccol1	ccol2	ccol3	ccol4	cside	cpos1	cpos2	cpos3	cpos4	rcol1	rcol2	rcol3	rcol4	rside	rpos1	rpos2	rpos3	rpos4	Resp1	CorAns1	Resp2	CorAns2	Acc1	Acc2	RT1	RT2


task	trial	fix1dur	fix2dur	fix3dur	s1dur	s2dur	s3dur	change	target	font	Astim	Vstim	newcolor	ccol1	ccol2	ccol3	ccol4	cside	cpos1	cpos2	cpos3	cpos4	rcol1	rcol2	rcol3	rcol4	rside	rpos1	rpos2	rpos3	rpos4	Resp1	CorAns1	Resp2	CorAns2	Acc1	Acc2	RT1	RT2


task	trial	fix1dur	fix2dur	fix3dur	s1dur	s2dur	s3dur	change	target	font	Astim	Vstim	newcolor	ccol1	ccol2	ccol3	ccol4	cside	cpos1	cpos2	cpos3	cpos4	rcol1	rcol2	rcol3	rcol4	rside	rpos1	rpos2	rpos3	rpos4	Resp1	CorAns1	Resp2	CorAns2	Acc1	Acc2	RT1	RT2


task	trial	fix1dur	fix2dur	fix3dur	s1dur	s2dur	s3dur	change	target	font	Astim	Vstim	newcolor	ccol1	ccol2	ccol3	ccol4	cside	cpos1	cpos2	cpos3	cpos4	rcol1	rcol2	rcol3	rcol4	rside	rpos1	rpos2	rpos3	rpos4	Resp1	CorAns1	Resp2	CorAns2	Acc1	Acc2	RT1	RT2


task	trial	fix1dur	fix2dur	fix3dur	s1dur	s2dur	s3dur	change	target	font	Astim	Vstim	newcolor	ccol1	ccol2	ccol3	ccol4	cside	cpos1	cpos2	cpos3	cpos4	rcol1	rcol2	rcol3	rcol4	rside	rpos1	rpos2	rpos3	rpos4	Resp1	CorAns1	Resp2	CorAns2	Acc1	Acc2	RT1	RT2


task	trial	fix1dur	fix2dur	fix3dur	s1dur	s2dur	s3dur	change	target	font	Astim	Vstim	newcolor	ccol1	ccol2	ccol3	ccol4	cside	cpos1	cpos2	cpos3	cpos4	rcol1	rcol2	rcol3	rcol4	rside	rpos1	rpos2	rpos3	rpos4	Resp1	CorAns1	Resp2	CorAns2	Acc1	Acc2	RT1	RT2


task	trial	fix1dur	fix2dur	fix3dur	s1dur	s2dur	s3dur	change	target	font	Astim	Vstim	newcolor	ccol1	ccol2	ccol3	ccol4	cside	cpos1	cpos2	cpos3	cpos4	rcol1	rcol2	rcol3	rcol4	rside	rpos1	rpos2	rpos3	rpos4	Resp1	CorAns1	Resp2	CorAns2	Acc1	Acc2	RT1	RT2


task	trial	fix1dur	fix2dur	fix3dur	s1dur	s2dur	s3dur	change	target	font	Astim	Vstim	newcolor	ccol1	ccol2	ccol3	ccol4	cside	cpos1	cpos2	cpos3	cpos4	rcol1	rcol2	rcol3	rcol4	rside	rpos1	rpos2	rpos3	rpos4	Resp1	CorAns1	Resp2	CorAns2	Acc1	Acc2	RT1	RT2


task	trial	fix1dur	fix2dur	fix3dur	s1dur	s2dur	s3dur	change	target	font	Astim	Vstim	newcolor	ccol1	ccol2	ccol3	ccol4	cside	cpos1	cpos2	cpos3	cpos4	rcol1	rcol2	rcol3	rcol4	rside	rpos1	rpos2	rpos3	rpos4	Resp1	CorAns1	Resp2	CorAns2	Acc1	Acc2	RT1	RT2


task	trial	fix1dur	fix2dur	fix3dur	s1dur	s2dur	s3dur	change	target	font	Astim	Vstim	newcolor	ccol1	ccol2	ccol3	ccol4	cside	cpos1	cpos2	cpos3	cpos4	rcol1	rcol2	rcol3	rcol4	rside	rpos1	rpos2	rpos3	rpos4	Resp1	CorAns1	Resp2	CorAns2	Acc1	Acc2	RT1	RT2


task	trial	fix1dur	fix2dur	fix3dur	s1dur	s2dur	s3dur	change	target	font	Astim	Vstim	newcolor	ccol1	ccol2	ccol3	ccol4	cside	cpos1	cpos2	cpos3	cpos4	rcol1	rcol2	rcol3	rcol4	rside	rpos1	rpos2	rpos3	rpos4	Resp1	CorAns1	Resp2	CorAns2	Acc1	Acc2	RT1	RT2


task	trial	fix1dur	fix2dur	fix3dur	s1dur	s2dur	s3dur	change	target	font	Astim	Vstim	newcolor	ccol1	ccol2	ccol3	ccol4	cside	cpos1	cpos2	cpos3	cpos4	rcol1	rcol2	rcol3	rcol4	rside	rpos1	rpos2	rpos3	rpos4	Resp1	CorAns1	Resp2	CorAns2	Acc1	Acc2	RT1	RT2


task	trial	fix1dur	fix2dur	fix3dur	s1dur	s2dur	s3dur	change	target	font	Astim	Vstim	newcolor	ccol1	ccol2	ccol3	ccol4	cside	cpos1	cpos2	cpos3	cpos4	rcol1	rcol2	rcol3	rcol4	rside	rpos1	rpos2	rpos3	rpos4	Resp1	CorAns1	Resp2	CorAns2	Acc1	Acc2	RT1	RT2


task	trial	fix1dur	fix2dur	fix3dur	s1dur	s2dur	s3dur	change	target	font	Astim	Vstim	newcolor	ccol1	ccol2	ccol3	ccol4	cside	cpos1	cpos2	cpos3	cpos4	rcol1	rcol2	rcol3	rcol4	rside	rpos1	rpos2	rpos3	rpos4	Resp1	CorAns1	Resp2	CorAns2	Acc1	Acc2	RT1	RT2
1	1	1.160235e-01	3.502302e-01	7.000067e-01	2.000124e-01	1.999605e-01	2.000370e+00	1	2	Calibri	 	 	green	yellow	magenta	white	blue	2	750 391	723 482	750 321	768 440	black	red	cyan	gray	2	565 312	564 463	537 398	588 367	0	0	0	6	1	NaN	NaN	NaN
1	2	1.168600e-01	3.501495e-01	7.001602e-01	1.999449e-01	1.999017e-01	2.000273e+00	1	1	Calibri	 	 	purple	white	green	black	blue	1	551 317	508 389	565 441	577 492	pink	blue	green	red	1	759 453	739 327	699 422	700 367	0	0	0	6	1	NaN	NaN	NaN


task	trial	fix1dur	fix2dur	fix3dur	s1dur	s2dur	s3dur	change	target	font	Astim	Vstim	newcolor	ccol1	ccol2	ccol3	ccol4	cside	cpos1	cpos2	cpos3	cpos4	rcol1	rcol2	rcol3	rcol4	rside	rpos1	rpos2	rpos3	rpos4	Resp1	CorAns1	Resp2	CorAns2	Acc1	Acc2	RT1	RT2
1	3	1.667152e-01	3.499761e-01	7.001002e-01	2.001389e-01	7.001015e-01	2.000299e+00	1	4	Calibri	p	4	white	blue	magenta	pink	purple	2	714 496	718 323	727 439	739 388	gray	purple	green	magenta	2	555 366	559 292	506 393	541 466	0	8	0	6	0	NaN	NaN	NaN
1	4	1.835200e-01	3.498815e-01	7.001988e-01	2.000447e-01	6.501664e-01	2.000237e+00	1	3	Calibri	p	2	red	magenta	gray	pink	black	1	543 417	524 349	566 290	558 509	magenta	gray	cyan	blue	1	714 383	762 435	709 473	720 311	0	8	0	6	0	NaN	NaN	NaN
1	5	1.328269e-01	3.498019e-01	6.999927e-01	2.001587e-01	8.003351e-01	2.000428e+00	0	3	Calibri	k	4	yellow	magenta	black	blue	red	2	720 323	735 378	755 437	703 508	pink	red	black	purple	2	506 389	564 397	574 294	548 453	0	6	0	8	0	NaN	NaN	NaN


task	trial	fix1dur	fix2dur	fix3dur	s1dur	s2dur	s3dur	change	target	font	Astim	Vstim	newcolor	ccol1	ccol2	ccol3	ccol4	cside	cpos1	cpos2	cpos3	cpos4	rcol1	rcol2	rcol3	rcol4	rside	rpos1	rpos2	rpos3	rpos4	Resp1	CorAns1	Resp2	CorAns2	Acc1	Acc2	RT1	RT2
1	1	1.166911e-01	3.501281e-01	7.002069e-01	2.001441e-01	1.998983e-01	2.000242e+00	0	3	Calibri	 	 	orange	pink	white	red	green	2	703 386	759 352	696 499	730 301	gray	magenta	black	yellow	2	534 422	573 309	559 480	512 363	0	0	0	8	1	NaN	NaN	NaN
1	2	1.166940e-01	3.499990e-01	7.002322e-01	2.002063e-01	2.000027e-01	2.000121e+00	0	1	Calibri	 	 	red	white	blue	magenta	green	2	704 346	703 452	758 374	702 294	black	green	white	red	2	561 441	581 318	544 365	578 514	0	0	0	8	1	NaN	NaN	NaN
1	3	1.667911e-01	3.499339e-01	7.001223e-01	2.000130e-01	7.834337e-01	2.000434e+00	1	4	Calibri	k	4	black	pink	blue	magenta	gray	1	569 496	528 454	586 302	573 380	gray	orange	white	black	1	745 472	708 512	696 350	771 362	0	6	0	6	0	NaN	NaN	NaN
1	4	1.834588e-01	3.500944e-01	7.002225e-01	1.999365e-01	6.499863e-01	2.000255e+00	0	1	Calibri	p	2	yellow	orange	cyan	green	black	1	571 332	534 445	560 493	531 391	black	blue	red	gray	1	741 454	714 391	694 320	742 340	0	8	0	8	0	NaN	NaN	NaN
1	5	1.159454e-01	3.502048e-01	7.000491e-01	1.999991e-01	1.999027e-01	2.000503e+00	0	3	Calibri	 	 	gray	magenta	pink	purple	cyan	1	556 323	566 468	539 385	584 417	purple	red	black	green	1	695 368	702 509	755 345	740 399	0	0	0	8	1	NaN	NaN	NaN
1	6	1.661577e-01	3.501710e-01	7.003217e-01	1.999011e-01	7.832853e-01	2.000277e+00	0	3	Calibri	k	2	black	magenta	green	red	gray	1	561 311	563 458	547 368	518 432	gray	black	blue	pink	1	765 422	738 372	710 312	734 495	0	6	0	8	0	NaN	NaN	NaN
1	7	1.667493e-01	3.500481e-01	7.001153e-01	2.000296e-01	2.001983e-01	2.000147e+00	0	2	Calibri	 	 	cyan	red	purple	blue	orange	1	587 402	567 323	529 389	586 477	cyan	gray	yellow	black	1	704 461	740 314	765 455	742 393	0	0	0	8	1	NaN	NaN	NaN
1	8	1.500507e-01	3.500685e-01	7.000782e-01	2.000103e-01	7.835876e-01	2.000257e+00	1	1	Calibri	k	4	orange	white	magenta	blue	purple	1	547 340	579 296	528 433	588 487	green	blue	magenta	white	1	763 382	747 458	704 417	711 514	0	6	0	6	0	NaN	NaN	NaN
1	9	9.999991e-02	3.500085e-01	7.001108e-01	2.000719e-01	2.001629e-01	2.000224e+00	0	2	Calibri	 	 	green	yellow	orange	white	gray	2	749 359	767 433	695 335	729 495	yellow	purple	white	green	2	543 355	581 460	519 452	588 523	0	0	0	8	1	NaN	NaN	NaN
1	10	1.834924e-01	3.500284e-01	6.999486e-01	1.999427e-01	2.001912e-01	2.000301e+00	0	4	Calibri	 	 	red	orange	pink	magenta	yellow	2	761 458	721 362	710 497	732 307	yellow	cyan	black	green	2	550 343	506 404	533 470	580 284	0	0	0	8	1	NaN	NaN	NaN
1	11	1.832961e-01	3.499946e-01	7.001238e-01	2.001781e-01	6.500826e-01	2.000355e+00	0	3	Calibri	p	2	pink	black	purple	orange	gray	2	700 391	737 333	707 464	714 285	red	green	cyan	pink	2	575 320	544 470	543 408	520 346	0	8	0	8	0	NaN	NaN	NaN
1	12	1.327064e-01	3.499433e-01	7.001226e-01	2.002261e-01	1.999723e-01	2.000301e+00	1	4	Calibri	 	 	black	white	gray	red	purple	1	535 419	544 319	583 464	575 371	yellow	purple	blue	white	1	700 349	708 506	734 406	762 454	0	0	0	6	1	NaN	NaN	NaN
1	13	1.992813e-01	3.500586e-01	7.000954e-01	2.000195e-01	6.502388e-01	2.000192e+00	1	3	Calibri	p	4	purple	magenta	white	pink	yellow	2	766 418	705 351	715 407	762 356	orange	gray	pink	cyan	2	522 456	563 365	576 292	578 478	0	8	0	6	0	NaN	NaN	NaN


task	trial	fix1dur	fix2dur	fix3dur	s1dur	s2dur	s3dur	change	target	font	Astim	Vstim	newcolor	ccol1	ccol2	ccol3	ccol4	cside	cpos1	cpos2	cpos3	cpos4	rcol1	rcol2	rcol3	rcol4	rside	rpos1	rpos2	rpos3	rpos4	Resp1	CorAns1	Resp2	CorAns2	Acc1	Acc2	RT1	RT2


task	trial	fix1dur	fix2dur	fix3dur	s1dur	s2dur	s3dur	change	target	font	Astim	Vstim	newcolor	ccol1	ccol2	ccol3	ccol4	cside	cpos1	cpos2	cpos3	cpos4	rcol1	rcol2	rcol3	rcol4	rside	rpos1	rpos2	rpos3	rpos4	Resp1	CorAns1	Resp2	CorAns2	Acc1	Acc2	RT1	RT2
1	1	1.166988e-01	3.499185e-01	7.000897e-01	2.001873e-01	2.000607e-01	2.000313e+00	0	3	Calibri	 	 	orange	pink	white	red	green	2	703 386	759 352	696 499	730 301	gray	magenta	black	yellow	2	534 422	573 309	559 480	512 363	0	0	0	8	1	NaN	NaN	NaN
1	2	1.168748e-01	3.500905e-01	7.001133e-01	1.998438e-01	2.000238e-01	2.000459e+00	0	1	Calibri	 	 	red	white	blue	magenta	green	2	704 346	703 452	758 374	702 294	black	green	white	red	2	561 441	581 318	544 365	578 514	0	0	0	8	1	NaN	NaN	NaN
1	3	1.666632e-01	7.834499e-01	7.000630e-01	2.000978e-01	2.000115e-01	2.000322e+00	1	4	Calibri	k	4	black	pink	blue	magenta	gray	1	569 496	528 454	586 302	573 380	gray	orange	white	black	1	745 472	708 512	696 350	771 362	0	6	0	6	0	NaN	NaN	NaN
1	4	1.500495e-01	6.501113e-01	7.002628e-01	2.000271e-01	2.000056e-01	2.000290e+00	0	1	Calibri	p	2	yellow	orange	cyan	green	black	1	571 332	534 445	560 493	531 391	black	blue	red	gray	1	741 454	714 391	694 320	742 340	0	8	0	8	0	NaN	NaN	NaN


task	trial	fix1dur	fix2dur	fix3dur	s1dur	s2dur	s3dur	change	target	font	Astim	Vstim	newcolor	ccol1	ccol2	ccol3	ccol4	cside	cpos1	cpos2	cpos3	cpos4	rcol1	rcol2	rcol3	rcol4	rside	rpos1	rpos2	rpos3	rpos4	Resp1	CorAns1	Resp2	CorAns2	Acc1	Acc2	RT1	RT2
1	1	1.333631e-01	3.500881e-01	7.001486e-01	2.000249e-01	2.166782e-01	2.000300e+00	1	4	Calibri	 	 	orange	pink	green	red	black	2	718 370	700 491	750 415	703 316	white	blue	yellow	pink	2	522 335	578 408	566 482	527 388	0	0	0	6	1	NaN	NaN	NaN
1	2	1.833465e-01	3.500674e-01	7.001203e-01	2.000179e-01	2.000415e-01	2.000322e+00	0	3	Calibri	 	 	black	blue	gray	cyan	magenta	1	558 484	575 378	563 291	510 436	yellow	red	purple	blue	1	709 343	719 487	708 415	703 288	0	0	0	8	1	NaN	NaN	NaN
1	3	1.667038e-01	3.500900e-01	7.001117e-01	2.000402e-01	2.000358e-01	2.000291e+00	1	1	Calibri	 	 	green	yellow	magenta	purple	pink	2	719 382	699 496	773 378	693 312	magenta	orange	white	pink	2	580 410	562 481	524 364	574 310	0	0	0	6	1	NaN	NaN	NaN
1	4	1.333468e-01	3.500408e-01	7.000999e-01	2.000285e-01	7.834957e-01	2.000304e+00	1	3	Calibri	k	2	purple	cyan	magenta	green	blue	1	558 465	553 393	579 281	572 339	yellow	black	green	blue	1	767 371	768 450	718 474	712 401	0	6	0	6	0	NaN	NaN	NaN
1	5	1.501001e-01	3.501070e-01	7.001179e-01	1.999485e-01	1.999940e-01	2.000356e+00	0	1	Calibri	 	 	orange	purple	magenta	white	green	2	694 339	758 468	706 412	702 485	white	gray	magenta	yellow	2	527 372	518 456	555 300	568 421	0	0	0	8	1	NaN	NaN	NaN
1	6	1.667711e-01	3.500342e-01	7.000585e-01	2.000054e-01	7.835007e-01	2.000383e+00	0	4	Calibri	k	2	black	magenta	green	purple	gray	2	729 409	693 461	734 313	707 359	cyan	magenta	yellow	green	2	558 482	561 300	575 396	505 421	0	6	0	8	0	NaN	NaN	NaN
1	7	1.833539e-01	3.500844e-01	7.001594e-01	2.000126e-01	7.834559e-01	2.000259e+00	1	4	Calibri	k	2	blue	green	orange	purple	pink	1	526 369	533 423	545 480	587 511	blue	yellow	red	green	1	738 351	727 484	718 413	776 407	0	6	0	6	0	NaN	NaN	NaN
1	8	1.167137e-01	3.501094e-01	7.001533e-01	1.999902e-01	7.834254e-01	2.000274e+00	1	4	Calibri	k	4	cyan	red	orange	gray	pink	2	696 498	711 373	751 330	696 299	black	white	pink	blue	2	546 426	531 347	556 498	582 323	0	6	0	6	0	NaN	NaN	NaN


task	trial	fix1dur	fix2dur	fix3dur	s1dur	s2dur	s3dur	change	target	font	Astim	Vstim	newcolor	ccol1	ccol2	ccol3	ccol4	cside	cpos1	cpos2	cpos3	cpos4	rcol1	rcol2	rcol3	rcol4	rside	rpos1	rpos2	rpos3	rpos4	Resp1	CorAns1	Resp2	CorAns2	Acc1	Acc2	RT1	RT2


task	trial	fix1dur	fix2dur	fix3dur	s1dur	s2dur	s3dur	change	target	font	Astim	Vstim	newcolor	ccol1	ccol2	ccol3	ccol4	cside	cpos1	cpos2	cpos3	cpos4	rcol1	rcol2	rcol3	rcol4	rside	rpos1	rpos2	rpos3	rpos4	Resp1	CorAns1	Resp2	CorAns2	Acc1	Acc2	RT1	RT2
1	1	1.002005e-01	3.500618e-01	7.001509e-01	1.998535e-01	2.833505e-01	2.000424e+00	0	2	Calibri	p	2	yellow	orange	blue	magenta	green	2	708 366	703 422	703 488	715 313	gray	cyan	yellow	green	2	517 401	541 352	533 486	573 300	0	8	0	8	0	NaN	NaN	NaN


task	trial	fix1dur	fix2dur	fix3dur	s1dur	s2dur	s3dur	change	target	font	Astim	Vstim	newcolor	ccol1	ccol2	ccol3	ccol4	cside	cpos1	cpos2	cpos3	cpos4	rcol1	rcol2	rcol3	rcol4	rside	rpos1	rpos2	rpos3	rpos4	Resp1	CorAns1	Resp2	CorAns2	Acc1	Acc2	RT1	RT2
1	1	1.499763e-01	3.499945e-01	7.002795e-01	2.002136e-01	2.998756e-01	2.000291e+00	0	2	Calibri	p	2	yellow	orange	blue	magenta	green	2	708 366	703 422	703 488	715 313	gray	cyan	yellow	green	2	517 401	541 352	533 486	573 300	0	8	0	8	0	NaN	NaN	NaN
1	2	1.667227e-01	3.499381e-01	7.002346e-01	2.001441e-01	1.999947e-01	2.000283e+00	1	4	Calibri	 	 	yellow	purple	gray	blue	cyan	1	550 351	587 303	579 514	555 417	orange	cyan	green	yellow	1	744 344	715 447	745 405	698 382	0	0	0	6	1	NaN	NaN	NaN
1	3	1.168044e-01	3.500657e-01	7.002729e-01	2.000648e-01	1.998360e-01	2.000289e+00	0	2	Calibri	 	 	blue	yellow	green	pink	orange	2	734 388	729 497	763 447	718 314	magenta	green	gray	purple	2	582 472	559 391	588 316	515 434	0	0	0	8	1	NaN	NaN	NaN
1	4	1.333940e-01	3.499707e-01	7.003274e-01	2.000912e-01	2.000253e-01	2.000234e+00	0	4	Calibri	k	6	yellow	green	gray	magenta	white	2	697 463	722 332	774 394	720 410	cyan	blue	purple	pink	2	522 362	568 399	567 496	581 306	0	6	0	8	0	NaN	NaN	NaN
1	5	1.168187e-01	3.501822e-01	7.001246e-01	1.998769e-01	1.998756e-01	2.000346e+00	0	3	Calibri	k	2	white	black	orange	green	red	1	583 494	572 342	586 435	514 454	pink	green	red	magenta	1	704 385	693 314	706 445	722 502	0	6	0	8	0	NaN	NaN	NaN
1	6	1.166818e-01	3.499967e-01	7.002851e-01	2.000936e-01	1.999450e-01	2.000235e+00	1	2	Calibri	p	2	pink	yellow	red	magenta	green	1	519 447	582 384	584 308	560 510	black	orange	gray	purple	1	714 446	765 367	718 290	701 350	0	8	0	6	0	NaN	NaN	NaN
1	7	1.332895e-01	3.500404e-01	7.001273e-01	2.000557e-01	2.000089e-01	2.000407e+00	1	2	Calibri	k	2	orange	blue	white	green	gray	1	580 371	537 439	505 384	552 326	white	black	purple	red	1	716 434	704 354	725 486	700 288	0	6	0	6	0	NaN	NaN	NaN
1	8	1.666366e-01	3.498881e-01	7.003105e-01	2.002093e-01	2.000036e-01	2.000220e+00	0	3	Calibri	 	 	cyan	green	orange	yellow	blue	2	694 479	736 382	702 288	757 469	blue	gray	black	white	2	541 321	561 459	512 391	565 403	0	0	0	8	1	NaN	NaN	NaN
1	9	1.161154e-01	3.499511e-01	7.002141e-01	1.999708e-01	2.000145e-01	2.000307e+00	0	4	Calibri	 	 	blue	pink	orange	white	cyan	1	543 423	523 356	566 510	588 281	cyan	black	yellow	red	1	725 399	693 274	700 508	765 453	0	0	0	8	1	NaN	NaN	NaN
1	10	1.333280e-01	3.501230e-01	7.002090e-01	2.000235e-01	1.999325e-01	2.000250e+00	0	4	Calibri	 	 	cyan	red	gray	white	black	2	725 306	724 459	769 420	760 350	blue	orange	pink	cyan	2	576 497	551 389	541 310	537 449	0	0	0	8	1	NaN	NaN	NaN
1	11	1.502089e-01	3.499384e-01	7.003271e-01	1.999924e-01	2.000133e-01	2.000134e+00	0	2	Calibri	 	 	pink	yellow	blue	purple	cyan	1	578 474	588 287	537 427	551 345	yellow	black	gray	orange	1	701 490	751 391	713 333	761 445	0	0	0	8	1	NaN	NaN	NaN
1	12	1.834428e-01	3.499610e-01	7.003449e-01	1.999708e-01	2.000042e-01	2.000126e+00	0	4	Calibri	 	 	white	yellow	gray	black	cyan	2	701 374	713 503	743 328	697 278	pink	red	white	orange	2	561 437	527 355	548 500	562 293	0	0	0	8	1	NaN	NaN	NaN
1	13	1.668335e-01	3.499974e-01	7.001280e-01	1.998902e-01	2.000301e-01	2.000315e+00	1	1	Calibri	p	6	gray	red	white	green	purple	1	546 370	573 482	563 316	522 441	magenta	cyan	gray	red	1	750 343	751 418	747 472	693 359	0	8	0	6	0	NaN	NaN	NaN
1	14	2.000581e-01	3.500337e-01	7.001507e-01	2.000047e-01	2.000137e-01	2.000374e+00	0	4	Calibri	 	 	gray	black	purple	orange	magenta	2	700 314	756 326	749 448	718 395	red	magenta	yellow	cyan	2	585 477	557 356	562 424	510 405	0	0	0	8	1	NaN	NaN	NaN
1	15	1.833163e-01	3.500609e-01	7.002166e-01	2.001187e-01	1.999222e-01	2.000318e+00	1	2	Calibri	 	 	red	white	purple	cyan	pink	1	571 286	539 480	536 327	518 382	magenta	pink	yellow	cyan	1	709 339	700 397	710 459	764 433	0	0	0	6	1	NaN	NaN	NaN
1	16	1.499968e-01	3.500539e-01	7.001427e-01	2.000324e-01	2.000354e-01	2.000381e+00	0	4	Calibri	k	6	black	cyan	purple	pink	green	2	730 497	756 385	701 416	728 295	yellow	gray	pink	green	2	550 414	552 339	507 382	579 516	0	6	0	8	0	NaN	NaN	NaN
1	17	1.666205e-01	3.500285e-01	7.002130e-01	2.001029e-01	1.999807e-01	2.000240e+00	1	4	Calibri	 	 	yellow	blue	black	red	purple	2	704 473	739 380	766 426	734 324	pink	blue	black	magenta	2	544 388	558 463	587 344	564 287	0	0	0	6	1	NaN	NaN	NaN
1	18	1.667082e-01	3.500804e-01	7.001962e-01	2.001077e-01	1.999073e-01	2.000300e+00	0	1	Calibri	k	6	pink	green	white	orange	magenta	1	552 451	565 503	565 336	505 398	blue	yellow	white	purple	1	719 454	722 508	696 325	738 391	0	6	0	8	0	NaN	NaN	NaN
1	19	1.833333e-01	3.500128e-01	7.000872e-01	2.001059e-01	2.000121e-01	2.000442e+00	1	4	Calibri	k	6	gray	cyan	white	purple	pink	1	558 506	544 429	545 357	577 283	magenta	white	cyan	green	1	725 375	758 426	706 499	753 322	0	6	0	6	0	NaN	NaN	NaN
1	20	1.666764e-01	3.500191e-01	7.001167e-01	2.000848e-01	2.000192e-01	2.000444e+00	0	2	Calibri	p	2	blue	magenta	gray	black	yellow	1	507 381	530 324	562 446	577 364	green	pink	black	blue	1	693 484	730 414	746 325	777 392	0	8	0	8	0	NaN	NaN	NaN


task	trial	fix1dur	fix2dur	fix3dur	s1dur	s2dur	s3dur	change	target	font	Astim	Vstim	newcolor	ccol1	ccol2	ccol3	ccol4	cside	cpos1	cpos2	cpos3	cpos4	rcol1	rcol2	rcol3	rcol4	rside	rpos1	rpos2	rpos3	rpos4	Resp1	CorAns1	Resp2	CorAns2	Acc1	Acc2	RT1	RT2


task	trial	fix1dur	fix2dur	fix3dur	s1dur	s2dur	s3dur	change	target	font	Astim	Vstim	newcolor	ccol1	ccol2	ccol3	ccol4	cside	cpos1	cpos2	cpos3	cpos4	rcol1	rcol2	rcol3	rcol4	rside	rpos1	rpos2	rpos3	rpos4	Resp1	CorAns1	Resp2	CorAns2	Acc1	Acc2	RT1	RT2


task	trial	fix1dur	fix2dur	fix3dur	s1dur	s2dur	s3dur	change	target	font	Astim	Vstim	newcolor	ccol1	ccol2	ccol3	ccol4	cside	cpos1	cpos2	cpos3	cpos4	rcol1	rcol2	rcol3	rcol4	rside	rpos1	rpos2	rpos3	rpos4	Resp1	CorAns1	Resp2	CorAns2	Acc1	Acc2	RT1	RT2


task	trial	fix1dur	fix2dur	fix3dur	s1dur	s2dur	s3dur	change	target	font	Astim	Vstim	newcolor	ccol1	ccol2	ccol3	ccol4	cside	cpos1	cpos2	cpos3	cpos4	rcol1	rcol2	rcol3	rcol4	rside	rpos1	rpos2	rpos3	rpos4	Resp1	CorAns1	Resp2	CorAns2	Acc1	Acc2	RT1	RT2


task	trial	fix1dur	fix2dur	fix3dur	s1dur	s2dur	s3dur	change	target	font	Astim	Vstim	newcolor	ccol1	ccol2	ccol3	ccol4	cside	cpos1	cpos2	cpos3	cpos4	rcol1	rcol2	rcol3	rcol4	rside	rpos1	rpos2	rpos3	rpos4	Resp1	CorAns1	Resp2	CorAns2	Acc1	Acc2	RT1	RT2


task	trial	fix1dur	fix2dur	fix3dur	s1dur	s2dur	s3dur	change	target	font	Astim	Vstim	newcolor	ccol1	ccol2	ccol3	ccol4	cside	cpos1	cpos2	cpos3	cpos4	rcol1	rcol2	rcol3	rcol4	rside	rpos1	rpos2	rpos3	rpos4	Resp1	CorAns1	Resp2	CorAns2	Acc1	Acc2	RT1	RT2
1	1	2.000419e-01	3.500904e-01	7.002813e-01	2.001453e-01	2.831707e-01	2.000181e+00	1	3	Calibri	p	2	orange	red	purple	magenta	white	2	698 441	719 334	730 504	754 445	cyan	black	white	red	2	586 412	585 471	536 398	527 459	0	8	0	6	0	NaN	NaN	NaN
1	2	1.668123e-01	3.499189e-01	7.002868e-01	2.000763e-01	1.999988e-01	2.000211e+00	0	3	Calibri	 	 	cyan	red	gray	white	yellow	1	512 447	568 495	531 350	581 434	pink	white	magenta	black	1	757 463	717 383	711 313	700 471	0	0	0	8	1	NaN	NaN	NaN
1	3	1.832250e-01	3.500449e-01	7.002332e-01	2.000408e-01	2.000070e-01	2.000353e+00	0	1	Calibri	 	 	blue	green	pink	yellow	red	2	753 471	693 364	743 396	705 504	magenta	white	green	blue	2	514 406	585 400	547 329	523 460	0	0	0	8	1	NaN	NaN	NaN
1	4	1.167008e-01	3.501577e-01	7.001573e-01	2.000575e-01	1.998797e-01	2.000288e+00	1	3	Calibri	 	 	blue	cyan	black	green	gray	1	548 384	572 502	586 305	524 463	gray	white	black	blue	1	771 362	714 340	771 441	701 497	0	0	0	6	1	NaN	NaN	NaN
1	5	2.000256e-01	3.499653e-01	7.002575e-01	2.001876e-01	1.999529e-01	2.000282e+00	0	4	Calibri	p	6	gray	pink	black	white	red	1	577 504	538 415	568 351	542 304	gray	green	yellow	blue	1	720 295	700 371	695 448	758 379	0	8	0	8	0	NaN	NaN	NaN
1	6	2.000569e-01	3.502319e-01	7.002319e-01	1.999126e-01	1.998369e-01	2.000245e+00	0	3	Calibri	p	6	black	orange	yellow	cyan	magenta	2	733 337	718 427	743 479	764 402	cyan	white	magenta	green	2	523 387	574 457	531 329	587 338	0	8	0	8	0	NaN	NaN	NaN
1	7	1.333542e-01	3.499307e-01	7.001977e-01	2.000794e-01	1.999950e-01	2.000373e+00	0	2	Calibri	k	2	gray	blue	black	magenta	purple	1	504 412	566 353	576 453	587 298	orange	pink	yellow	white	1	764 429	771 368	706 418	719 288	0	6	0	8	0	NaN	NaN	NaN
1	8	1.833262e-01	3.501596e-01	7.001253e-01	2.000020e-01	1.998752e-01	2.000428e+00	0	3	Calibri	p	2	orange	gray	purple	magenta	yellow	1	581 430	547 378	584 324	549 501	magenta	purple	yellow	blue	1	694 489	755 465	730 375	700 325	0	8	0	8	0	NaN	NaN	NaN
1	9	2.001509e-01	3.500494e-01	7.002020e-01	1.999387e-01	2.000187e-01	2.000307e+00	1	2	Calibri	 	 	orange	red	cyan	green	purple	2	712 332	741 421	703 496	754 368	red	black	magenta	blue	2	567 503	513 420	566 350	509 360	0	0	0	6	1	NaN	NaN	NaN
1	10	1.499775e-01	3.500128e-01	7.002153e-01	2.000827e-01	1.999958e-01	2.000301e+00	1	4	Calibri	p	2	red	gray	blue	white	yellow	2	723 376	751 451	717 320	702 498	magenta	white	blue	pink	2	512 392	536 346	522 466	574 437	0	8	0	6	0	NaN	NaN	NaN
1	11	1.333672e-01	3.501213e-01	7.001726e-01	2.001780e-01	1.998164e-01	2.000350e+00	1	1	Calibri	 	 	red	yellow	pink	cyan	purple	2	739 321	716 390	715 451	700 504	purple	magenta	gray	black	2	582 397	558 296	522 397	560 507	0	0	0	6	1	NaN	NaN	NaN
1	12	1.166796e-01	3.500378e-01	7.001563e-01	2.001118e-01	1.998952e-01	2.000302e+00	1	4	Calibri	p	6	gray	purple	yellow	white	cyan	2	774 376	739 438	709 318	709 495	black	magenta	blue	orange	2	579 400	582 521	582 283	541 341	0	8	0	6	0	NaN	NaN	NaN
1	13	2.000333e-01	3.500848e-01	7.002106e-01	1.999980e-01	1.999847e-01	2.000277e+00	0	2	Calibri	k	6	black	purple	pink	cyan	gray	2	725 348	733 495	768 419	707 283	white	red	gray	pink	2	583 409	546 365	576 488	507 422	0	6	0	8	0	NaN	NaN	NaN


task	trial	fix1dur	fix2dur	fix3dur	s1dur	s2dur	s3dur	change	target	font	Astim	Vstim	newcolor	ccol1	ccol2	ccol3	ccol4	cside	cpos1	cpos2	cpos3	cpos4	rcol1	rcol2	rcol3	rcol4	rside	rpos1	rpos2	rpos3	rpos4	Resp1	CorAns1	Resp2	CorAns2	Acc1	Acc2	RT1	RT2


task	trial	fix1dur	fix2dur	fix3dur	s1dur	s2dur	s3dur	change	target	font	Astim	Vstim	newcolor	ccol1	ccol2	ccol3	ccol4	cside	cpos1	cpos2	cpos3	cpos4	rcol1	rcol2	rcol3	rcol4	rside	rpos1	rpos2	rpos3	rpos4	Resp1	CorAns1	Resp2	CorAns2	Acc1	Acc2	RT1	RT2
5	1	1.666218e-01	3.501767e-01	7.002066e-01	2.000595e-01	2.998415e-01	2.000330e+00	1	3	Calibri	p	6	red	black	green	orange	pink	1	538 467	524 411	582 374	525 329	gray	pink	blue	black	1	761 389	727 476	707 375	740 319	0	8	0	6	0	NaN	NaN	NaN
5	2	1.168535e-01	3.501212e-01	7.001952e-01	1.999596e-01	1.998556e-01	2.000272e+00	0	2	Calibri	 	 	cyan	red	blue	purple	green	2	769 399	722 332	736 463	695 522	blue	pink	red	green	2	567 496	515 439	533 332	581 396	0	0	0	8	1	NaN	NaN	NaN


task	trial	fix1dur	fix2dur	fix3dur	s1dur	s2dur	s3dur	change	target	font	Astim	Vstim	newcolor	ccol1	ccol2	ccol3	ccol4	cside	cpos1	cpos2	cpos3	cpos4	rcol1	rcol2	rcol3	rcol4	rside	rpos1	rpos2	rpos3	rpos4	Resp1	CorAns1	Resp2	CorAns2	Acc1	Acc2	RT1	RT2
5	1	1.333227e-01	3.500397e-01	7.002396e-01	2.000772e-01	3.000094e-01	2.000219e+00	1	3	Calibri	p	6	red	black	green	orange	pink	1	538 467	524 411	582 374	525 329	gray	pink	blue	black	1	761 389	727 476	707 375	740 319	0	8	0	6	0	NaN	NaN	NaN
5	2	1.501618e-01	3.500998e-01	7.001216e-01	2.000041e-01	1.998919e-01	2.000436e+00	0	2	Calibri	 	 	cyan	red	blue	purple	green	2	769 399	722 332	736 463	695 522	blue	pink	red	green	2	567 496	515 439	533 332	581 396	0	0	0	8	1	NaN	NaN	NaN
5	3	1.668217e-01	3.500669e-01	7.002530e-01	1.999387e-01	1.999764e-01	2.000218e+00	1	3	Calibri	p	2	green	gray	blue	black	purple	1	534 319	566 501	584 425	525 382	magenta	yellow	pink	purple	1	734 401	740 472	762 338	705 303	0	6	0	6	0	NaN	NaN	NaN
5	4	1.661267e-01	3.500217e-01	7.002455e-01	1.999930e-01	1.999113e-01	2.000276e+00	1	1	Calibri	k	6	yellow	pink	blue	gray	orange	1	581 465	587 327	509 415	528 463	pink	yellow	green	orange	1	767 397	720 330	711 398	720 452	0	8	0	6	0	NaN	NaN	NaN
5	5	1.669012e-01	3.500558e-01	7.002696e-01	1.999674e-01	1.998925e-01	2.000222e+00	1	3	Calibri	 	 	pink	blue	black	magenta	red	1	573 448	585 298	553 381	524 470	white	blue	yellow	green	1	745 363	711 420	693 482	766 454	0	0	0	6	1	NaN	NaN	NaN
5	6	1.834527e-01	3.500930e-01	7.001927e-01	1.999941e-01	1.998936e-01	2.000235e+00	0	2	Calibri	k	2	pink	red	purple	green	yellow	2	704 373	771 388	722 428	697 319	orange	blue	purple	red	2	551 307	575 360	516 398	581 477	0	6	0	8	0	NaN	NaN	NaN
5	7	1.334653e-01	3.502460e-01	7.001916e-01	1.998790e-01	1.998743e-01	2.000228e+00	1	2	Calibri	k	2	pink	gray	white	yellow	red	1	541 365	553 470	579 400	573 321	gray	black	orange	white	1	700 455	728 384	724 502	712 315	0	6	0	6	0	NaN	NaN	NaN
5	8	1.167325e-01	3.499757e-01	7.001447e-01	2.001056e-01	1.999296e-01	2.000362e+00	1	2	Calibri	p	2	blue	magenta	pink	black	yellow	2	761 361	694 326	773 429	719 484	blue	green	black	pink	2	512 411	574 498	577 423	550 320	0	6	0	6	0	NaN	NaN	NaN
5	9	1.499290e-01	3.500600e-01	7.002483e-01	2.001129e-01	1.999497e-01	2.000193e+00	0	2	Calibri	k	2	magenta	pink	blue	black	yellow	2	743 388	705 500	699 430	722 301	pink	purple	magenta	gray	2	565 359	581 281	549 475	584 429	0	6	0	8	0	NaN	NaN	NaN
5	10	1.667854e-01	3.500757e-01	7.002223e-01	2.000910e-01	1.998654e-01	2.000323e+00	1	2	Calibri	k	6	yellow	purple	orange	magenta	red	1	555 405	517 346	503 403	564 493	black	orange	pink	magenta	1	724 344	741 408	751 477	695 440	0	8	0	6	0	NaN	NaN	NaN
5	11	1.002212e-01	3.500730e-01	7.001226e-01	1.998352e-01	2.000019e-01	2.000351e+00	0	1	Calibri	k	6	gray	black	cyan	white	magenta	2	759 346	696 519	724 396	757 465	green	gray	blue	cyan	2	546 327	524 380	582 462	581 523	0	8	0	8	0	NaN	NaN	NaN
5	12	1.833700e-01	3.501799e-01	7.001771e-01	2.000186e-01	1.999115e-01	2.000287e+00	1	3	Calibri	 	 	purple	pink	orange	cyan	gray	2	696 473	770 372	755 443	715 335	red	pink	black	magenta	2	525 358	585 328	547 472	587 411	0	0	0	6	1	NaN	NaN	NaN
5	13	1.833523e-01	3.502025e-01	7.001193e-01	2.000402e-01	1.998445e-01	2.000354e+00	1	1	Calibri	 	 	magenta	purple	gray	white	green	2	733 323	747 468	710 515	715 422	orange	blue	white	gray	2	553 371	551 314	545 448	570 497	0	0	0	6	1	NaN	NaN	NaN
5	14	1.666449e-01	3.499859e-01	7.001123e-01	2.002296e-01	1.998861e-01	2.000348e+00	1	2	Calibri	 	 	pink	blue	black	cyan	magenta	1	588 379	571 481	569 295	521 464	white	green	magenta	cyan	1	752 379	715 431	772 431	704 486	0	0	0	6	1	NaN	NaN	NaN
5	15	1.500480e-01	3.499869e-01	7.001604e-01	2.000935e-01	2.000305e-01	2.000292e+00	1	4	Calibri	k	6	magenta	green	black	gray	pink	2	708 316	693 513	729 431	735 374	white	green	blue	gray	2	538 316	541 450	513 373	585 376	0	8	0	6	0	NaN	NaN	NaN
5	16	1.335151e-01	3.500272e-01	7.001798e-01	1.998785e-01	2.000326e-01	2.000369e+00	0	1	Calibri	p	2	pink	gray	blue	green	black	1	515 396	578 424	526 340	577 522	pink	black	magenta	blue	1	722 364	738 459	715 512	773 393	0	6	0	8	0	NaN	NaN	NaN
5	17	2.000410e-01	3.499785e-01	7.002315e-01	2.000598e-01	2.000182e-01	2.000230e+00	0	2	Calibri	 	 	gray	blue	red	pink	cyan	1	584 520	559 327	535 443	580 393	yellow	magenta	cyan	gray	1	726 472	702 420	739 377	751 320	0	0	0	8	1	NaN	NaN	NaN
5	18	1.166244e-01	3.501376e-01	7.001204e-01	2.000177e-01	1.999359e-01	2.000435e+00	0	1	Calibri	p	2	red	cyan	black	white	green	1	586 454	513 351	540 490	567 315	white	green	yellow	blue	1	728 329	723 409	749 477	707 516	0	6	0	8	0	NaN	NaN	NaN
5	19	2.000549e-01	3.500506e-01	7.001197e-01	1.999986e-01	1.999568e-01	2.000357e+00	0	4	Calibri	p	2	purple	black	cyan	orange	pink	2	699 368	757 386	728 304	720 504	white	pink	purple	orange	2	527 446	576 466	565 410	520 382	0	6	0	8	0	NaN	NaN	NaN
5	20	1.999355e-01	3.500482e-01	7.002174e-01	2.000838e-01	1.999872e-01	2.000331e+00	0	2	Calibri	k	6	blue	orange	red	green	yellow	2	723 447	750 318	706 290	702 394	cyan	blue	black	white	2	578 475	570 328	512 411	577 414	0	8	0	8	0	NaN	NaN	NaN


task	trial	fix1dur	fix2dur	fix3dur	s1dur	s2dur	s3dur	change	target	font	Astim	Vstim	newcolor	ccol1	ccol2	ccol3	ccol4	cside	cpos1	cpos2	cpos3	cpos4	rcol1	rcol2	rcol3	rcol4	rside	rpos1	rpos2	rpos3	rpos4	Resp1	CorAns1	Resp2	CorAns2	Acc1	Acc2	RT1	RT2
1	1	1.001976e-01	3.500547e-01	5.001284e-01	2.000314e-01	3.998869e-01	2.000388e+00	0	4	Calibri	 	 	orange	cyan	white	magenta	purple	1	566 353	555 489	509 395	517 446	red	yellow	black	magenta	1	729 354	729 424	714 514	694 304	0	0	0	8	1	NaN	NaN	NaN
1	2	1.500950e-01	3.500926e-01	5.001794e-01	2.000883e-01	3.999181e-01	2.000211e+00	0	4	Calibri	o	9	purple	gray	yellow	cyan	pink	1	520 372	576 445	560 506	549 313	yellow	gray	red	magenta	1	726 470	726 323	749 410	697 280	0	8	0	8	0	NaN	NaN	NaN
1	3	2.001119e-01	3.499766e-01	5.002074e-01	2.000485e-01	4.000205e-01	2.000222e+00	0	1	Calibri	 	 	orange	black	red	purple	gray	1	582 342	544 420	578 479	528 364	white	orange	blue	purple	1	739 393	702 474	709 314	760 343	0	0	0	8	1	NaN	NaN	NaN
1	4	1.500367e-01	3.501341e-01	5.002024e-01	2.000347e-01	3.998539e-01	2.000285e+00	0	1	Calibri	k	9	yellow	orange	magenta	black	purple	1	531 394	577 514	577 345	577 451	magenta	black	yellow	purple	1	737 459	699 509	721 366	693 412	0	6	0	8	0	NaN	NaN	NaN
1	5	1.500747e-01	3.499419e-01	5.001031e-01	2.000188e-01	4.000206e-01	2.000479e+00	0	1	Calibri	 	 	black	orange	gray	white	yellow	1	567 335	519 357	536 422	579 478	pink	yellow	red	magenta	1	707 502	705 322	753 341	731 445	0	0	0	8	1	NaN	NaN	NaN
1	6	1.000186e-01	3.500967e-01	5.001047e-01	2.000083e-01	3.999073e-01	2.000340e+00	1	2	Calibri	o	2	blue	white	purple	yellow	green	1	571 394	565 314	519 410	586 445	black	gray	purple	cyan	1	708 476	693 393	713 296	753 354	0	8	0	6	0	NaN	NaN	NaN
1	7	1.333826e-01	3.501334e-01	5.001431e-01	1.999271e-01	3.999015e-01	2.000265e+00	0	4	Calibri	o	2	black	white	red	purple	cyan	2	736 484	721 305	711 435	767 353	yellow	gray	white	blue	2	571 357	541 430	574 473	572 296	0	8	0	8	0	NaN	NaN	NaN
1	8	1.332928e-01	3.501571e-01	5.002332e-01	2.000176e-01	3.999620e-01	2.000228e+00	1	4	Calibri	 	 	black	cyan	green	gray	red	2	717 345	731 396	705 517	725 456	gray	green	yellow	orange	2	547 334	524 421	577 492	574 284	0	0	0	6	1	NaN	NaN	NaN
1	9	1.667882e-01	3.501424e-01	5.000999e-01	1.999665e-01	3.999470e-01	2.000311e+00	1	1	Calibri	 	 	gray	orange	green	white	magenta	1	543 407	577 329	534 476	570 518	orange	magenta	black	green	1	696 480	756 354	712 327	761 422	0	0	0	6	1	NaN	NaN	NaN
1	10	1.833836e-01	3.501562e-01	5.000947e-01	1.999209e-01	3.999240e-01	2.000323e+00	1	3	Calibri	 	 	blue	red	magenta	black	white	1	558 368	587 307	575 429	538 465	orange	blue	gray	black	1	712 469	739 425	737 343	694 278	0	0	0	6	1	NaN	NaN	NaN
1	11	1.167538e-01	3.499808e-01	5.000944e-01	2.000243e-01	4.000370e-01	2.000379e+00	0	2	Calibri	 	 	purple	yellow	black	blue	white	2	766 417	711 357	743 465	732 303	green	pink	red	gray	2	545 444	524 386	586 276	569 337	0	0	0	8	1	NaN	NaN	NaN
1	12	1.166737e-01	3.500019e-01	5.001308e-01	2.001205e-01	3.999993e-01	2.000336e+00	1	1	Calibri	 	 	red	cyan	black	white	blue	1	580 380	510 391	588 284	562 452	yellow	cyan	pink	green	1	744 443	698 394	757 331	696 462	0	0	0	6	1	NaN	NaN	NaN
1	13	1.501353e-01	3.500773e-01	5.000614e-01	1.998725e-01	4.000462e-01	2.000481e+00	0	4	Calibri	o	2	magenta	gray	cyan	yellow	white	1	587 280	587 386	543 479	528 330	green	gray	pink	blue	1	749 344	715 424	707 302	715 505	0	8	0	8	0	NaN	NaN	NaN
1	14	1.667276e-01	3.500537e-01	5.000788e-01	1.999647e-01	4.000489e-01	2.000406e+00	0	1	Calibri	 	 	yellow	orange	green	black	white	1	585 396	520 392	582 492	561 444	yellow	black	magenta	blue	1	710 316	757 348	757 466	726 417	0	0	0	8	1	NaN	NaN	NaN
1	15	1.666685e-01	3.499695e-01	5.001751e-01	2.000633e-01	4.000672e-01	2.000348e+00	1	2	Calibri	 	 	magenta	red	green	purple	pink	2	754 388	695 274	698 330	700 419	white	red	yellow	orange	2	559 436	521 336	579 368	576 289	0	0	0	6	1	NaN	NaN	NaN


task	trial	fix1dur	fix2dur	fix3dur	s1dur	s2dur	s3dur	change	target	font	Astim	Vstim	newcolor	ccol1	ccol2	ccol3	ccol4	cside	cpos1	cpos2	cpos3	cpos4	rcol1	rcol2	rcol3	rcol4	rside	rpos1	rpos2	rpos3	rpos4	Resp1	CorAns1	Resp2	CorAns2	Acc1	Acc2	RT1	RT2
5	1	1.335690e-01	3.500783e-01	5.002723e-01	1.999984e-01	3.998654e-01	2.000215e+00	1	3	Calibri	 	 	gray	cyan	yellow	white	magenta	1	536 430	582 406	570 355	571 496	gray	black	yellow	orange	1	729 437	711 359	770 355	699 287	0	0	0	6	1	NaN	NaN	NaN
5	2	1.834648e-01	3.498713e-01	5.002704e-01	2.001111e-01	4.000598e-01	2.000247e+00	0	3	Calibri	o	9	white	gray	black	orange	blue	1	552 478	537 400	541 315	582 433	orange	green	black	pink	1	708 443	726 340	693 513	749 396	0	8	0	8	0	NaN	NaN	NaN


task	trial	fix1dur	fix2dur	fix3dur	s1dur	s2dur	s3dur	change	target	font	Astim	Vstim	newcolor	ccol1	ccol2	ccol3	ccol4	cside	cpos1	cpos2	cpos3	cpos4	rcol1	rcol2	rcol3	rcol4	rside	rpos1	rpos2	rpos3	rpos4	Resp1	CorAns1	Resp2	CorAns2	Acc1	Acc2	RT1	RT2
5	1	1.166317e-01	3.499083e-01	5.002715e-01	2.001486e-01	4.000156e-01	2.000237e+00	1	3	Calibri	 	 	gray	cyan	yellow	white	magenta	1	536 430	582 406	570 355	571 496	gray	black	yellow	orange	1	729 437	711 359	770 355	699 287	0	0	0	6	1	NaN	NaN	NaN
5	2	1.501951e-01	3.498831e-01	5.001091e-01	2.000381e-01	4.000381e-01	2.000429e+00	0	3	Calibri	o	9	white	gray	black	orange	blue	1	552 478	537 400	541 315	582 433	orange	green	black	pink	1	708 443	726 340	693 513	749 396	0	8	0	8	0	NaN	NaN	NaN


task	trial	fix1dur	fix2dur	fix3dur	s1dur	s2dur	s3dur	change	target	font	Astim	Vstim	newcolor	ccol1	ccol2	ccol3	ccol4	cside	cpos1	cpos2	cpos3	cpos4	rcol1	rcol2	rcol3	rcol4	rside	rpos1	rpos2	rpos3	rpos4	Resp1	CorAns1	Resp2	CorAns2	Acc1	Acc2	RT1	RT2
5	1	1.166879e-01	3.500935e-01	5.000953e-01	2.000155e-01	4.000283e-01	2.000361e+00	1	3	Calibri	 	 	gray	cyan	yellow	white	magenta	1	536 430	582 406	570 355	571 496	gray	black	yellow	orange	1	729 437	711 359	770 355	699 287	0	0	0	6	1	NaN	NaN	NaN
5	2	1.666961e-01	3.500259e-01	5.000829e-01	2.000579e-01	4.000532e-01	2.000340e+00	0	3	Calibri	o	9	white	gray	black	orange	blue	1	552 478	537 400	541 315	582 433	orange	green	black	pink	1	708 443	726 340	693 513	749 396	0	8	0	8	0	NaN	NaN	NaN
5	3	1.166810e-01	3.500587e-01	5.001333e-01	2.000380e-01	4.000216e-01	2.000311e+00	1	2	Calibri	 	 	blue	pink	magenta	cyan	black	2	776 405	695 391	726 455	733 308	green	orange	purple	gray	2	576 434	518 411	562 355	572 293	0	0	0	6	1	NaN	NaN	NaN
5	4	1.333680e-01	3.500618e-01	5.000838e-01	2.000257e-01	4.000635e-01	2.000335e+00	1	3	Calibri	 	 	green	orange	purple	blue	gray	1	575 365	542 446	513 372	588 492	magenta	orange	gray	purple	1	704 368	710 462	707 297	744 420	0	0	0	6	1	NaN	NaN	NaN
5	5	1.166996e-01	3.500602e-01	5.000587e-01	2.000251e-01	4.000733e-01	2.000337e+00	0	1	Calibri	k	2	cyan	white	black	orange	gray	2	764 388	705 411	719 462	697 344	gray	green	black	purple	2	524 378	560 308	586 503	582 358	0	6	0	8	0	NaN	NaN	NaN
5	6	1.833682e-01	3.500627e-01	5.000719e-01	2.000319e-01	4.000824e-01	2.000319e+00	0	3	Calibri	o	9	purple	cyan	green	orange	red	2	757 330	753 461	695 446	775 395	red	cyan	purple	gray	2	567 490	580 430	552 297	506 397	0	8	0	8	0	NaN	NaN	NaN
5	7	2.000376e-01	3.500777e-01	5.000927e-01	2.000082e-01	4.000433e-01	2.000343e+00	0	1	Calibri	 	 	gray	red	orange	purple	black	1	584 386	576 472	548 308	515 375	green	cyan	white	yellow	1	701 340	705 493	752 406	765 349	0	0	0	8	1	NaN	NaN	NaN
5	8	1.500370e-01	3.500281e-01	5.000862e-01	2.000190e-01	4.000871e-01	2.000329e+00	0	1	Calibri	k	2	yellow	purple	cyan	orange	white	1	581 337	513 365	536 448	571 515	green	black	white	red	1	704 500	752 363	697 335	710 406	0	6	0	8	0	NaN	NaN	NaN
5	9	1.160831e-01	3.500591e-01	5.000977e-01	2.000354e-01	4.000740e-01	2.000302e+00	1	3	Calibri	k	9	magenta	orange	white	cyan	pink	1	514 356	567 377	570 299	579 476	green	orange	pink	blue	1	758 351	695 501	744 469	713 286	0	8	0	6	0	NaN	NaN	NaN
5	10	1.667082e-01	3.500377e-01	5.000786e-01	2.000246e-01	4.000721e-01	2.000327e+00	1	3	Calibri	 	 	cyan	gray	red	yellow	purple	2	723 320	742 462	709 408	759 367	white	blue	magenta	pink	2	558 351	559 293	588 475	574 406	0	0	0	6	1	NaN	NaN	NaN
5	11	1.333896e-01	3.500601e-01	5.000685e-01	2.000010e-01	4.000740e-01	2.000323e+00	0	4	Calibri	k	9	magenta	gray	purple	red	orange	1	563 466	531 388	584 369	549 312	magenta	cyan	green	orange	1	706 433	735 315	717 370	757 454	0	8	0	8	0	NaN	NaN	NaN
5	12	2.000454e-01	3.500497e-01	5.001131e-01	2.000214e-01	4.000649e-01	2.000310e+00	0	1	Calibri	 	 	gray	blue	magenta	red	green	1	578 478	562 411	569 286	509 393	purple	green	gray	orange	1	701 449	766 420	734 310	721 509	0	0	0	8	1	NaN	NaN	NaN
5	13	1.166879e-01	3.500414e-01	5.001035e-01	2.000342e-01	4.000581e-01	2.000324e+00	0	1	Calibri	 	 	red	purple	yellow	magenta	blue	2	740 358	728 444	701 315	775 413	cyan	black	gray	pink	2	571 341	535 408	582 496	534 465	0	0	0	8	1	NaN	NaN	NaN
5	14	1.000349e-01	3.500291e-01	5.001053e-01	2.000374e-01	4.000624e-01	2.000321e+00	1	4	Calibri	 	 	purple	magenta	green	black	white	2	701 373	748 345	721 493	695 431	gray	orange	green	yellow	2	553 429	584 297	583 381	552 484	0	0	0	6	1	NaN	NaN	NaN
5	15	1.166862e-01	3.500617e-01	5.000891e-01	2.000322e-01	4.000385e-01	2.000342e+00	1	1	Calibri	o	9	magenta	gray	yellow	cyan	black	1	564 401	534 443	576 334	523 368	cyan	magenta	green	yellow	1	753 344	742 427	733 489	705 314	0	8	0	6	0	NaN	NaN	NaN
5	16	2.000604e-01	3.500918e-01	5.000781e-01	1.999949e-01	4.000452e-01	2.000334e+00	0	3	Calibri	 	 	black	gray	orange	red	pink	2	697 435	761 374	705 504	702 336	gray	orange	purple	green	2	587 316	531 371	583 446	517 422	0	0	0	8	1	NaN	NaN	NaN
5	17	1.166817e-01	3.500401e-01	5.000856e-01	2.000606e-01	4.000641e-01	2.000303e+00	1	3	Calibri	o	2	yellow	orange	black	white	gray	2	745 456	769 354	735 312	705 518	magenta	black	white	orange	2	516 445	568 331	544 397	587 463	0	6	0	6	0	NaN	NaN	NaN
5	18	1.833779e-01	3.500935e-01	5.000771e-01	2.000292e-01	4.000281e-01	2.000343e+00	0	4	Calibri	k	2	pink	black	yellow	blue	white	2	774 398	733 342	704 441	704 500	cyan	red	magenta	blue	2	554 323	569 493	521 365	536 439	0	6	0	8	0	NaN	NaN	NaN


task	trial	fix1dur	fix2dur	fix3dur	s1dur	s2dur	s3dur	change	target	font	Astim	Vstim	newcolor	ccol1	ccol2	ccol3	ccol4	cside	cpos1	cpos2	cpos3	cpos4	rcol1	rcol2	rcol3	rcol4	rside	rpos1	rpos2	rpos3	rpos4	Resp1	CorAns1	Resp2	CorAns2	Acc1	Acc2	RT1	RT2


task	trial	fix1dur	fix2dur	fix3dur	s1dur	s2dur	s3dur	change	target	font	Astim	Vstim	newcolor	ccol1	ccol2	ccol3	ccol4	cside	cpos1	cpos2	cpos3	cpos4	rcol1	rcol2	rcol3	rcol4	rside	rpos1	rpos2	rpos3	rpos4	Resp1	CorAns1	Resp2	CorAns2	Acc1	Acc2	RT1	RT2


task	trial	fix1dur	fix2dur	fix3dur	s1dur	s2dur	s3dur	change	target	font	Astim	Vstim	newcolor	ccol1	ccol2	ccol3	ccol4	cside	cpos1	cpos2	cpos3	cpos4	rcol1	rcol2	rcol3	rcol4	rside	rpos1	rpos2	rpos3	rpos4	Resp1	CorAns1	Resp2	CorAns2	Acc1	Acc2	RT1	RT2
1	1	1.456740e-01	3.503101e-01	5.004264e-01	2.001242e-01	4.003731e-01	2.001443e+00	0	3	Calibri	o	9	cyan	black	purple	blue	orange	2	727 356	723 477	713 286	735 417	green	magenta	gray	red	2	581 428	528 361	585 371	575 521	0	8	0	8	0	NaN	NaN	NaN
1	2	1.334668e-01	3.504007e-01	5.005212e-01	2.000451e-01	4.002957e-01	2.001427e+00	0	2	Calibri	k	2	red	white	blue	green	cyan	2	734 311	726 414	767 378	762 454	red	magenta	green	orange	2	518 450	554 355	573 421	565 286	0	6	0	8	0	NaN	NaN	NaN
1	3	1.164597e-01	3.503347e-01	5.013629e-01	2.002065e-01	4.003305e-01	2.000638e+00	1	1	Calibri	 	 	purple	blue	orange	yellow	gray	2	729 361	769 418	722 290	713 434	green	magenta	pink	red	2	554 448	536 329	587 396	516 406	0	0	0	6	1	NaN	NaN	NaN
1	4	1.308071e-01	3.534092e-01	5.003564e-01	2.001463e-01	4.138508e-01	2.001524e+00	1	2	Calibri	 	 	magenta	yellow	cyan	purple	black	1	557 494	510 423	555 326	510 371	green	pink	white	cyan	1	708 352	700 433	693 276	754 412	0	0	0	6	1	NaN	NaN	NaN
1	5	1.779639e-01	3.502970e-01	5.005100e-01	2.002395e-01	4.003047e-01	2.001522e+00	1	3	Calibri	k	2	pink	gray	magenta	orange	cyan	1	570 463	522 408	570 381	525 334	cyan	pink	green	purple	1	699 307	705 500	722 430	725 370	0	6	0	6	0	NaN	NaN	NaN
1	6	1.783785e-01	3.503460e-01	5.004872e-01	2.001308e-01	4.003614e-01	2.001329e+00	0	4	Calibri	 	 	yellow	green	gray	red	white	1	546 308	575 365	575 455	531 395	purple	blue	white	magenta	1	710 401	713 317	701 470	768 420	0	0	0	8	1	NaN	NaN	NaN
1	7	1.143033e-01	3.502396e-01	5.174497e-01	2.001475e-01	4.003506e-01	2.001182e+00	0	2	Calibri	o	2	cyan	black	orange	blue	pink	2	755 346	694 379	768 447	711 317	black	orange	white	yellow	2	529 463	537 344	581 496	573 406	0	8	0	8	0	NaN	NaN	NaN
1	8	1.135329e-01	3.503957e-01	5.004833e-01	2.000390e-01	4.003093e-01	2.001370e+00	0	3	Calibri	 	 	blue	cyan	black	purple	orange	1	579 444	574 347	514 420	510 355	cyan	pink	magenta	white	1	724 418	766 370	739 321	721 471	0	0	0	8	1	NaN	NaN	NaN
1	9	1.637380e-01	3.503384e-01	5.005121e-01	2.002133e-01	4.002293e-01	2.001384e+00	1	2	Calibri	k	9	gray	blue	purple	cyan	yellow	2	700 395	730 488	756 395	730 343	purple	white	orange	blue	2	553 458	572 357	518 372	575 302	0	6	0	6	0	NaN	NaN	NaN
1	10	1.796996e-01	3.504906e-01	5.005443e-01	2.002034e-01	4.003580e-01	2.001385e+00	1	1	Calibri	 	 	green	pink	cyan	magenta	white	1	550 389	563 508	585 452	522 453	green	black	magenta	white	1	731 332	719 451	722 384	768 408	0	0	0	6	1	NaN	NaN	NaN
1	11	1.799352e-01	3.502251e-01	5.004340e-01	2.001803e-01	4.004727e-01	2.001699e+00	1	1	Calibri	 	 	red	purple	cyan	green	orange	2	748 361	703 388	730 500	754 441	green	blue	purple	black	2	585 317	568 427	543 474	521 382	0	0	0	6	1	NaN	NaN	NaN
1	12	1.802552e-01	3.503070e-01	5.003679e-01	2.001806e-01	4.003601e-01	2.001365e+00	1	1	Calibri	 	 	orange	cyan	green	magenta	white	2	745 334	730 450	763 409	693 495	black	white	green	magenta	2	560 385	584 292	504 401	569 494	0	0	0	6	1	NaN	NaN	NaN
1	13	1.470537e-01	3.506817e-01	5.004476e-01	2.001684e-01	4.003241e-01	2.001613e+00	0	2	Calibri	 	 	pink	orange	magenta	red	blue	1	528 460	509 398	548 351	562 506	green	white	red	pink	1	727 399	693 487	762 360	704 310	0	0	0	8	1	NaN	NaN	NaN
1	14	1.989980e-01	3.503133e-01	5.004292e-01	2.000714e-01	4.003633e-01	2.001380e+00	1	2	Calibri	 	 	green	cyan	purple	blue	white	2	740 360	741 450	712 505	735 306	cyan	black	purple	gray	2	531 439	585 347	535 312	520 371	0	0	0	6	1	NaN	NaN	NaN
1	15	1.991573e-01	3.502178e-01	5.004402e-01	2.004016e-01	4.003672e-01	2.001478e+00	0	2	Calibri	o	2	purple	black	blue	pink	gray	2	724 453	769 388	713 375	740 320	gray	black	purple	pink	2	530 426	557 378	562 467	578 284	0	8	0	8	0	NaN	NaN	NaN
1	16	1.953874e-01	3.503461e-01	5.003972e-01	2.001463e-01	4.003616e-01	2.001452e+00	0	2	Calibri	o	2	black	yellow	green	cyan	white	2	741 365	702 492	751 461	694 340	yellow	cyan	purple	red	2	541 328	549 419	569 496	580 289	0	8	0	8	0	NaN	NaN	NaN
1	17	1.821607e-01	3.503408e-01	5.005817e-01	2.001537e-01	4.002642e-01	2.001750e+00	1	3	Calibri	 	 	gray	white	red	pink	orange	2	722 501	726 412	693 365	708 297	orange	yellow	black	pink	2	553 480	555 326	517 406	583 370	0	0	0	6	1	NaN	NaN	NaN
1	18	1.331790e-01	3.502167e-01	5.005029e-01	2.001420e-01	4.004337e-01	2.001411e+00	1	1	Calibri	o	9	red	blue	orange	yellow	white	1	563 514	552 458	515 397	585 390	green	gray	black	pink	1	709 312	701 387	704 472	764 456	0	8	0	6	0	NaN	NaN	NaN
1	19	1.282030e-01	3.502742e-01	5.005150e-01	2.002013e-01	4.002834e-01	2.001321e+00	1	2	Calibri	 	 	cyan	pink	yellow	orange	black	1	585 352	562 415	543 472	526 361	magenta	white	yellow	cyan	1	693 371	730 333	695 278	760 461	0	0	0	6	1	NaN	NaN	NaN
1	20	1.250857e-01	3.502437e-01	5.005298e-01	2.002586e-01	4.003401e-01	2.001288e+00	0	3	Calibri	 	 	yellow	red	green	blue	purple	2	762 353	714 324	694 392	694 515	gray	pink	green	purple	2	565 489	558 433	569 365	572 297	0	0	0	8	1	NaN	NaN	NaN


task	trial	fix1dur	fix2dur	fix3dur	s1dur	s2dur	s3dur	change	target	font	Astim	Vstim	newcolor	ccol1	ccol2	ccol3	ccol4	cside	cpos1	cpos2	cpos3	cpos4	rcol1	rcol2	rcol3	rcol4	rside	rpos1	rpos2	rpos3	rpos4	Resp1	CorAns1	Resp2	CorAns2	Acc1	Acc2	RT1	RT2
1	1	1.961835e-01	3.502072e-01	5.004518e-01	2.002590e-01	4.003427e-01	2.018450e+00	0	3	Calibri	o	9	cyan	black	purple	blue	orange	2	727 356	723 477	713 286	735 417	green	magenta	gray	red	2	581 428	528 361	585 371	575 521	0	8	0	8	0	NaN	NaN	NaN
1	2	1.305402e-01	3.503445e-01	5.170532e-01	2.000891e-01	4.003677e-01	2.001513e+00	0	2	Calibri	k	2	red	white	blue	green	cyan	2	734 311	726 414	767 378	762 454	red	magenta	green	orange	2	518 450	554 355	573 421	565 286	0	6	0	8	0	NaN	NaN	NaN
1	3	1.307771e-01	3.502950e-01	5.004932e-01	2.001441e-01	4.003922e-01	2.001279e+00	1	1	Calibri	 	 	purple	blue	orange	yellow	gray	2	729 361	769 418	722 290	713 434	green	magenta	pink	red	2	554 448	536 329	587 396	516 406	0	0	0	6	1	NaN	NaN	NaN
1	4	1.304480e-01	3.504036e-01	5.004815e-01	2.000376e-01	4.003150e-01	2.001895e+00	1	2	Calibri	 	 	magenta	yellow	cyan	purple	black	1	557 494	510 423	555 326	510 371	green	pink	white	cyan	1	708 352	700 433	693 276	754 412	0	0	0	6	1	NaN	NaN	NaN
1	5	1.629678e-01	3.503495e-01	5.005548e-01	2.001075e-01	4.002824e-01	2.001489e+00	1	3	Calibri	k	2	pink	gray	magenta	orange	cyan	1	570 463	522 408	570 381	525 334	cyan	pink	green	purple	1	699 307	705 500	722 430	725 370	0	6	0	6	0	NaN	NaN	NaN


task	trial	fix1dur	fix2dur	fix3dur	s1dur	s2dur	s3dur	change	target	font	Astim	Vstim	newcolor	ccol1	ccol2	ccol3	ccol4	cside	cpos1	cpos2	cpos3	cpos4	rcol1	rcol2	rcol3	rcol4	rside	rpos1	rpos2	rpos3	rpos4	Resp1	CorAns1	Resp2	CorAns2	Acc1	Acc2	RT1	RT2
1	1	1.124768e-01	3.639183e-01	5.003483e-01	2.031847e-01	4.004590e-01	2.001417e+00	0	3	Calibri	o	9	cyan	black	purple	blue	orange	2	727 356	723 477	713 286	735 417	green	magenta	gray	red	2	581 428	528 361	585 371	575 521	0	8	0	8	0	NaN	NaN	NaN


task	trial	fix1dur	fix2dur	fix3dur	s1dur	s2dur	s3dur	change	target	font	Astim	Vstim	newcolor	ccol1	ccol2	ccol3	ccol4	cside	cpos1	cpos2	cpos3	cpos4	rcol1	rcol2	rcol3	rcol4	rside	rpos1	rpos2	rpos3	rpos4	Resp1	CorAns1	Resp2	CorAns2	Acc1	Acc2	RT1	RT2
1	1	1.638327e-01	3.503349e-01	5.004590e-01	2.001814e-01	4.003756e-01	2.001407e+00	0	3	Calibri	o	9	cyan	black	purple	blue	orange	2	727 356	723 477	713 286	735 417	green	magenta	gray	red	2	581 428	528 361	585 371	575 521	0	8	0	8	0	NaN	NaN	NaN
1	2	1.638974e-01	3.503469e-01	5.004501e-01	2.001584e-01	4.003935e-01	2.001407e+00	0	2	Calibri	k	2	red	white	blue	green	cyan	2	734 311	726 414	767 378	762 454	red	magenta	green	orange	2	518 450	554 355	573 421	565 286	0	6	0	8	0	NaN	NaN	NaN
1	3	1.501979e-01	3.503337e-01	5.003747e-01	2.001387e-01	4.004024e-01	2.001428e+00	1	1	Calibri	 	 	purple	blue	orange	yellow	gray	2	729 361	769 418	722 290	713 434	green	magenta	pink	red	2	554 448	536 329	587 396	516 406	0	0	0	6	1	NaN	NaN	NaN
1	4	1.961523e-01	3.503087e-01	5.005279e-01	2.002581e-01	4.002780e-01	2.001665e+00	1	2	Calibri	 	 	magenta	yellow	cyan	purple	black	1	557 494	510 423	555 326	510 371	green	pink	white	cyan	1	708 352	700 433	693 276	754 412	0	0	0	6	1	NaN	NaN	NaN
1	5	1.933314e-01	3.503732e-01	5.003401e-01	2.001990e-01	4.003447e-01	2.001555e+00	1	3	Calibri	k	2	pink	gray	magenta	orange	cyan	1	570 463	522 408	570 381	525 334	cyan	pink	green	purple	1	699 307	705 500	722 430	725 370	0	6	0	6	0	NaN	NaN	NaN
1	6	1.972960e-01	3.503481e-01	5.005166e-01	2.002082e-01	4.002882e-01	2.001606e+00	0	4	Calibri	 	 	yellow	green	gray	red	white	1	546 308	575 365	575 455	531 395	purple	blue	white	magenta	1	710 401	713 317	701 470	768 420	0	0	0	8	1	NaN	NaN	NaN
1	7	1.800476e-01	3.502879e-01	5.003932e-01	2.001429e-01	4.003845e-01	2.001844e+00	0	2	Calibri	o	2	cyan	black	orange	blue	pink	2	755 346	694 379	768 447	711 317	black	orange	white	yellow	2	529 463	537 344	581 496	573 406	0	8	0	8	0	NaN	NaN	NaN
1	8	1.303220e-01	3.503146e-01	5.004355e-01	2.000713e-01	4.003875e-01	2.001428e+00	0	3	Calibri	 	 	blue	cyan	black	purple	orange	1	579 444	574 347	514 420	510 355	cyan	pink	magenta	white	1	724 418	766 370	739 321	721 471	0	0	0	8	1	NaN	NaN	NaN
1	9	1.805999e-01	3.502118e-01	5.004406e-01	2.002404e-01	4.004576e-01	2.001352e+00	1	2	Calibri	k	9	gray	blue	purple	cyan	yellow	2	700 395	730 488	756 395	730 343	purple	white	orange	blue	2	553 458	572 357	518 372	575 302	0	6	0	6	0	NaN	NaN	NaN
1	10	1.812064e-01	3.502628e-01	5.004891e-01	2.002589e-01	4.003643e-01	2.001348e+00	1	1	Calibri	 	 	green	pink	cyan	magenta	white	1	550 389	563 508	585 452	522 453	green	black	magenta	white	1	731 332	719 451	722 384	768 408	0	0	0	6	1	NaN	NaN	NaN
1	11	1.631196e-01	3.503070e-01	5.003941e-01	2.002146e-01	4.003304e-01	2.001427e+00	1	1	Calibri	 	 	red	purple	cyan	green	orange	2	748 361	703 388	730 500	754 441	green	blue	purple	black	2	585 317	568 427	543 474	521 382	0	0	0	6	1	NaN	NaN	NaN
1	12	1.832048e-01	3.503928e-01	5.004217e-01	2.000902e-01	4.003308e-01	2.001518e+00	1	1	Calibri	 	 	orange	cyan	green	magenta	white	2	745 334	730 450	763 409	693 495	black	white	green	magenta	2	560 385	584 292	504 401	569 494	0	0	0	6	1	NaN	NaN	NaN
1	13	1.810130e-01	3.502426e-01	5.004284e-01	2.001368e-01	4.004026e-01	2.001432e+00	0	2	Calibri	 	 	pink	orange	magenta	red	blue	1	528 460	509 398	548 351	562 506	green	white	red	pink	1	727 399	693 487	762 360	704 310	0	0	0	8	1	NaN	NaN	NaN
1	14	1.834790e-01	3.502815e-01	5.004831e-01	2.001279e-01	4.003833e-01	2.001379e+00	1	2	Calibri	 	 	green	cyan	purple	blue	white	2	740 360	741 450	712 505	735 306	cyan	black	purple	gray	2	531 439	585 347	535 312	520 371	0	0	0	6	1	NaN	NaN	NaN
1	15	1.494855e-01	3.504989e-01	5.003723e-01	1.999077e-01	4.003968e-01	2.001509e+00	0	2	Calibri	o	2	purple	black	blue	pink	gray	2	724 453	769 388	713 375	740 320	gray	black	purple	pink	2	530 426	557 378	562 467	578 284	0	8	0	8	0	NaN	NaN	NaN
1	16	1.112990e-01	3.502119e-01	5.005446e-01	2.001511e-01	4.003763e-01	2.001448e+00	0	2	Calibri	o	2	black	yellow	green	cyan	white	2	741 365	702 492	751 461	694 340	yellow	cyan	purple	red	2	541 328	549 419	569 496	580 289	0	8	0	8	0	NaN	NaN	NaN
1	17	1.777775e-01	3.503234e-01	5.003702e-01	2.002659e-01	4.003331e-01	2.001381e+00	1	3	Calibri	 	 	gray	white	red	pink	orange	2	722 501	726 412	693 365	708 297	orange	yellow	black	pink	2	553 480	555 326	517 406	583 370	0	0	0	6	1	NaN	NaN	NaN
1	18	1.815292e-01	3.502879e-01	5.003563e-01	2.002067e-01	4.003889e-01	2.001470e+00	1	1	Calibri	o	9	red	blue	orange	yellow	white	1	563 514	552 458	515 397	585 390	green	gray	black	pink	1	709 312	701 387	704 472	764 456	0	8	0	6	0	NaN	NaN	NaN
1	19	1.408794e-01	3.504006e-01	5.004035e-01	2.000979e-01	4.002646e-01	2.001435e+00	1	2	Calibri	 	 	cyan	pink	yellow	orange	black	1	585 352	562 415	543 472	526 361	magenta	white	yellow	cyan	1	693 371	730 333	695 278	760 461	0	0	0	6	1	NaN	NaN	NaN


task	trial	fix1dur	fix2dur	fix3dur	s1dur	s2dur	s3dur	change	target	font	Astim	Vstim	newcolor	ccol1	ccol2	ccol3	ccol4	cside	cpos1	cpos2	cpos3	cpos4	rcol1	rcol2	rcol3	rcol4	rside	rpos1	rpos2	rpos3	rpos4	Resp1	CorAns1	Resp2	CorAns2	Acc1	Acc2	RT1	RT2
1	1	1.969070e-01	3.502888e-01	5.005513e-01	2.002390e-01	4.002818e-01	2.001369e+00	0	3	Calibri	o	9	cyan	black	purple	blue	orange	2	727 356	723 477	713 286	735 417	green	magenta	gray	red	2	581 428	528 361	585 371	575 521	0	8	0	8	0	NaN	NaN	NaN
1	2	1.298096e-01	3.502512e-01	5.038461e-01	2.001400e-01	4.004164e-01	2.020649e+00	0	2	Calibri	k	2	red	white	blue	green	cyan	2	734 311	726 414	767 378	762 454	red	magenta	green	orange	2	518 450	554 355	573 421	565 286	0	6	0	8	0	NaN	NaN	NaN
1	3	1.824433e-01	3.503086e-01	5.004758e-01	2.000955e-01	4.004065e-01	2.001723e+00	1	1	Calibri	 	 	purple	blue	orange	yellow	gray	2	729 361	769 418	722 290	713 434	green	magenta	pink	red	2	554 448	536 329	587 396	516 406	0	0	0	6	1	NaN	NaN	NaN
1	4	1.295735e-01	3.502859e-01	5.005861e-01	2.001588e-01	4.002955e-01	2.001423e+00	1	2	Calibri	 	 	magenta	yellow	cyan	purple	black	1	557 494	510 423	555 326	510 371	green	pink	white	cyan	1	708 352	700 433	693 276	754 412	0	0	0	6	1	NaN	NaN	NaN
1	5	1.491748e-01	3.504114e-01	5.171482e-01	2.001381e-01	4.003230e-01	2.001344e+00	1	3	Calibri	k	2	pink	gray	magenta	orange	cyan	1	570 463	522 408	570 381	525 334	cyan	pink	green	purple	1	699 307	705 500	722 430	725 370	0	6	0	6	0	NaN	NaN	NaN


task	trial	fix1dur	fix2dur	fix3dur	s1dur	s2dur	s3dur	change	target	font	Astim	Vstim	newcolor	ccol1	ccol2	ccol3	ccol4	cside	cpos1	cpos2	cpos3	cpos4	rcol1	rcol2	rcol3	rcol4	rside	rpos1	rpos2	rpos3	rpos4	Resp1	CorAns1	Resp2	CorAns2	Acc1	Acc2	RT1	RT2


task	trial	fix1dur	fix2dur	fix3dur	s1dur	s2dur	s3dur	change	target	font	Astim	Vstim	newcolor	ccol1	ccol2	ccol3	ccol4	cside	cpos1	cpos2	cpos3	cpos4	rcol1	rcol2	rcol3	rcol4	rside	rpos1	rpos2	rpos3	rpos4	Resp1	CorAns1	Resp2	CorAns2	Acc1	Acc2	RT1	RT2
1	1	1.459295e-01	3.504045e-01	5.004509e-01	2.000453e-01	4.003170e-01	2.001698e+00	0	3	Calibri	o	9	cyan	black	purple	blue	orange	2	727 356	723 477	713 286	735 417	green	magenta	gray	red	2	581 428	528 361	585 371	575 521	0	8	0	8	0	NaN	NaN	NaN
1	2	1.653165e-01	3.502015e-01	5.003853e-01	2.005014e-01	4.004107e-01	2.001409e+00	0	2	Calibri	k	2	red	white	blue	green	cyan	2	734 311	726 414	767 378	762 454	red	magenta	green	orange	2	518 450	554 355	573 421	565 286	0	6	0	8	0	NaN	NaN	NaN
1	3	1.442487e-01	3.503528e-01	5.003625e-01	2.004527e-01	4.170351e-01	2.018450e+00	1	1	Calibri	 	 	purple	blue	orange	yellow	gray	2	729 361	769 418	722 290	713 434	green	magenta	pink	red	2	554 448	536 329	587 396	516 406	0	0	0	6	1	NaN	NaN	NaN
1	4	1.961071e-01	3.502547e-01	5.004470e-01	2.002488e-01	4.003548e-01	2.001465e+00	1	2	Calibri	 	 	magenta	yellow	cyan	purple	black	1	557 494	510 423	555 326	510 371	green	pink	white	cyan	1	708 352	700 433	693 276	754 412	0	0	0	6	1	NaN	NaN	NaN
1	5	1.469977e-01	3.502476e-01	5.004616e-01	2.001731e-01	4.003507e-01	2.001395e+00	1	3	Calibri	k	2	pink	gray	magenta	orange	cyan	1	570 463	522 408	570 381	525 334	cyan	pink	green	purple	1	699 307	705 500	722 430	725 370	0	6	0	6	0	NaN	NaN	NaN
1	6	1.808610e-01	3.503279e-01	5.003932e-01	2.001748e-01	4.003968e-01	2.001370e+00	0	4	Calibri	 	 	yellow	green	gray	red	white	1	546 308	575 365	575 455	531 395	purple	blue	white	magenta	1	710 401	713 317	701 470	768 420	0	0	0	8	1	NaN	NaN	NaN
1	7	1.813403e-01	3.503658e-01	5.005072e-01	2.001043e-01	4.003206e-01	2.001714e+00	0	2	Calibri	o	2	cyan	black	orange	blue	pink	2	755 346	694 379	768 447	711 317	black	orange	white	yellow	2	529 463	537 344	581 496	573 406	0	8	0	8	0	NaN	NaN	NaN
1	8	1.803495e-01	3.502998e-01	5.004043e-01	2.001502e-01	4.004110e-01	2.001541e+00	0	3	Calibri	 	 	blue	cyan	black	purple	orange	1	579 444	574 347	514 420	510 355	cyan	pink	magenta	white	1	724 418	766 370	739 321	721 471	0	0	0	8	1	NaN	NaN	NaN
1	9	1.642707e-01	3.504181e-01	5.006101e-01	2.000779e-01	4.002124e-01	2.001421e+00	1	2	Calibri	k	9	gray	blue	purple	cyan	yellow	2	700 395	730 488	756 395	730 343	purple	white	orange	blue	2	553 458	572 357	518 372	575 302	0	6	0	6	0	NaN	NaN	NaN
1	10	1.795963e-01	3.502081e-01	5.005557e-01	2.002829e-01	4.003200e-01	2.001360e+00	1	1	Calibri	 	 	green	pink	cyan	magenta	white	1	550 389	563 508	585 452	522 453	green	black	magenta	white	1	731 332	719 451	722 384	768 408	0	0	0	6	1	NaN	NaN	NaN
1	11	1.315495e-01	3.502821e-01	5.004121e-01	2.001180e-01	4.003988e-01	2.001494e+00	1	1	Calibri	 	 	red	purple	cyan	green	orange	2	748 361	703 388	730 500	754 441	green	blue	purple	black	2	585 317	568 427	543 474	521 382	0	0	0	6	1	NaN	NaN	NaN
1	12	1.662675e-01	3.503186e-01	5.004913e-01	2.001103e-01	4.003541e-01	2.001354e+00	1	1	Calibri	 	 	orange	cyan	green	magenta	white	2	745 334	730 450	763 409	693 495	black	white	green	magenta	2	560 385	584 292	504 401	569 494	0	0	0	6	1	NaN	NaN	NaN
1	13	1.330725e-01	3.502748e-01	5.003796e-01	2.001296e-01	4.004457e-01	2.001426e+00	0	2	Calibri	 	 	pink	orange	magenta	red	blue	1	528 460	509 398	548 351	562 506	green	white	red	pink	1	727 399	693 487	762 360	704 310	0	0	0	8	1	NaN	NaN	NaN
1	14	1.943451e-01	3.502904e-01	5.004694e-01	2.001594e-01	4.003763e-01	2.001492e+00	1	2	Calibri	 	 	green	cyan	purple	blue	white	2	740 360	741 450	712 505	735 306	cyan	black	purple	gray	2	531 439	585 347	535 312	520 371	0	0	0	6	1	NaN	NaN	NaN
1	15	1.113865e-01	3.501874e-01	5.003756e-01	2.002144e-01	4.005017e-01	2.001427e+00	0	2	Calibri	o	2	purple	black	blue	pink	gray	2	724 453	769 388	713 375	740 320	gray	black	purple	pink	2	530 426	557 378	562 467	578 284	0	8	0	8	0	NaN	NaN	NaN
1	16	1.271423e-01	3.503290e-01	5.002485e-01	2.001456e-01	4.003400e-01	2.001704e+00	0	2	Calibri	o	2	black	yellow	green	cyan	white	2	741 365	702 492	751 461	694 340	yellow	cyan	purple	red	2	541 328	549 419	569 496	580 289	0	8	0	8	0	NaN	NaN	NaN
1	17	2.101462e-01	3.670073e-01	5.004505e-01	2.000948e-01	4.004110e-01	2.001654e+00	1	3	Calibri	 	 	gray	white	red	pink	orange	2	722 501	726 412	693 365	708 297	orange	yellow	black	pink	2	553 480	555 326	517 406	583 370	0	0	0	6	1	NaN	NaN	NaN
1	18	1.911312e-01	3.502866e-01	5.004745e-01	2.001234e-01	4.003861e-01	2.001463e+00	1	1	Calibri	o	9	red	blue	orange	yellow	white	1	563 514	552 458	515 397	585 390	green	gray	black	pink	1	709 312	701 387	704 472	764 456	0	8	0	6	0	NaN	NaN	NaN
1	19	1.469333e-01	3.502348e-01	5.004303e-01	2.002127e-01	4.003951e-01	2.001440e+00	1	2	Calibri	 	 	cyan	pink	yellow	orange	black	1	585 352	562 415	543 472	526 361	magenta	white	yellow	cyan	1	693 371	730 333	695 278	760 461	0	0	0	6	1	NaN	NaN	NaN
1	20	1.131539e-01	3.503207e-01	5.004737e-01	2.001674e-01	4.002604e-01	2.001526e+00	0	3	Calibri	 	 	yellow	red	green	blue	purple	2	762 353	714 324	694 392	694 515	gray	pink	green	purple	2	565 489	558 433	569 365	572 297	0	0	0	8	1	NaN	NaN	NaN
5	1	1.821779e-01	3.503286e-01	5.005167e-01	2.001848e-01	4.002770e-01	2.001696e+00	1	4	Calibri	k	9	orange	magenta	cyan	white	green	1	526 392	560 438	542 341	587 286	black	purple	yellow	gray	1	752 373	705 461	700 355	756 441	0	8	0	6	0	NaN	NaN	NaN
5	2	1.969015e-01	3.503080e-01	5.003438e-01	2.002185e-01	4.004117e-01	2.001712e+00	1	2	Calibri	 	 	pink	white	yellow	cyan	gray	1	523 418	550 491	587 356	583 297	blue	orange	pink	green	1	737 477	709 349	725 418	710 295	0	0	0	6	1	NaN	NaN	NaN
5	3	1.663551e-01	3.502698e-01	5.006578e-01	2.001773e-01	4.001886e-01	2.001428e+00	1	4	Calibri	 	 	green	red	pink	magenta	black	1	530 475	587 387	556 292	528 417	yellow	green	gray	white	1	740 376	696 477	727 427	723 326	0	0	0	6	1	NaN	NaN	NaN
5	4	1.983412e-01	3.503206e-01	5.005785e-01	2.001349e-01	4.003198e-01	2.001373e+00	0	2	Calibri	 	 	magenta	white	pink	cyan	blue	1	569 453	535 386	583 513	534 329	black	white	yellow	blue	1	731 476	743 329	741 391	693 346	0	0	0	8	1	NaN	NaN	NaN
5	5	1.664574e-01	3.502227e-01	5.005755e-01	2.004928e-01	4.002805e-01	2.001317e+00	1	3	Calibri	o	2	black	purple	green	gray	pink	1	581 397	547 499	579 295	528 443	blue	white	red	gray	1	725 412	711 316	747 363	707 517	0	6	0	6	0	NaN	NaN	NaN
5	6	1.282005e-01	3.503220e-01	5.004641e-01	2.001387e-01	4.002891e-01	2.001451e+00	0	2	Calibri	k	9	cyan	pink	gray	black	yellow	2	753 450	733 330	698 391	697 280	yellow	green	red	pink	2	516 387	583 460	584 372	533 485	0	8	0	8	0	NaN	NaN	NaN
5	7	1.941661e-01	3.502706e-01	5.005161e-01	2.002319e-01	4.003382e-01	2.001390e+00	1	4	Calibri	o	9	red	green	pink	orange	cyan	2	698 386	768 365	717 490	744 415	white	yellow	orange	blue	2	537 402	574 516	541 460	542 336	0	8	0	6	0	NaN	NaN	NaN
5	8	1.603615e-01	3.503647e-01	5.004641e-01	2.000702e-01	4.003852e-01	2.001342e+00	1	3	Calibri	k	9	pink	blue	white	purple	yellow	1	525 391	574 497	521 462	569 426	blue	green	magenta	cyan	1	708 285	736 347	746 467	753 405	0	8	0	6	0	NaN	NaN	NaN
5	9	1.966885e-01	3.503452e-01	5.004051e-01	2.001028e-01	4.003717e-01	2.001439e+00	0	1	Calibri	 	 	yellow	blue	gray	orange	black	2	699 460	772 433	763 352	702 360	magenta	white	purple	black	2	582 478	534 435	556 300	585 417	0	0	0	8	1	NaN	NaN	NaN
5	10	1.811773e-01	3.503603e-01	5.004886e-01	2.001225e-01	4.003239e-01	2.001422e+00	0	1	Calibri	k	9	red	magenta	yellow	pink	orange	1	511 368	579 368	558 478	552 297	cyan	green	gray	pink	1	774 421	720 511	716 435	715 351	0	8	0	8	0	NaN	NaN	NaN
5	11	1.298438e-01	3.503522e-01	5.004983e-01	2.000913e-01	4.002825e-01	2.001354e+00	1	1	Calibri	o	2	black	purple	yellow	orange	gray	2	719 397	693 504	737 473	748 319	pink	green	gray	purple	2	574 315	556 447	583 387	526 402	0	6	0	6	0	NaN	NaN	NaN
5	12	1.469204e-01	3.502484e-01	5.004436e-01	2.002899e-01	4.003594e-01	2.001418e+00	1	2	Calibri	 	 	magenta	purple	blue	orange	black	2	705 343	717 489	755 452	748 390	white	black	cyan	green	2	584 329	513 388	550 427	563 491	0	0	0	6	1	NaN	NaN	NaN
5	13	1.304728e-01	3.502543e-01	5.172179e-01	2.002120e-01	4.003439e-01	2.001377e+00	1	1	Calibri	o	9	yellow	magenta	red	cyan	blue	2	756 383	712 505	700 396	722 446	cyan	magenta	white	green	2	544 373	579 490	574 434	573 315	0	8	0	6	0	NaN	NaN	NaN
5	14	1.298546e-01	3.501318e-01	5.000986e-01	2.005443e-01	4.004758e-01	2.002032e+00	1	2	Calibri	 	 	gray	cyan	blue	red	white	1	550 496	503 390	587 292	552 334	black	purple	green	orange	1	709 423	772 438	717 508	715 353	0	0	0	6	1	NaN	NaN	NaN
5	15	1.301723e-01	3.503140e-01	5.170123e-01	2.001092e-01	4.004298e-01	2.001525e+00	0	3	Calibri	 	 	pink	cyan	red	green	magenta	1	509 437	534 377	586 414	539 319	yellow	green	cyan	blue	1	763 353	728 425	722 509	696 327	0	0	0	8	1	NaN	NaN	NaN
